pID,condition,target,distractor,start_time,typed_input,keypress_times,cleaned_response,cleaned_typingTimes,response_type,response_check,subj,trialNum,onset_time,onset_latency,edit_type
00ccdc61d8c7e1d75567f4ee807f60da,ID,table,table,1645560755456,"t,a,b,l,e,(Enter)",16455607579361646e61,table_,16455607579361646e61,pass,pass-target,1,1,1645560757936,2180,NA
00ccdc61d8c7e1d75567f4ee807f60da,REL,church,castle,1645560759040,"c,h,u,r,c,h,(Enter)",1.6455607616651644e+90,church_,1.6455607616651644e+90,pass,pass-target,1,2,1645560761665,2325,NA
00ccdc61d8c7e1d75567f4ee807f60da,UNREL,plate,cannon,1645560769208,"p,l,a,t,e,(Enter)",16455607712941646e61,plate_,16455607712941646e61,pass,pass-target,1,4,1645560771294,1786,NA
00ccdc61d8c7e1d75567f4ee807f60da,NEU,pistol,XXXXX,1645560776880,"p,i,s,t,o,l,(Enter)",16455607784851654e74,pistol_,16455607784851654e74,pass,pass-target,1,6,1645560778485,1305,NA
00ccdc61d8c7e1d75567f4ee807f60da,UNREL,arm,train,1645560788429,"a,r,m,(Enter)",16455607901611645e35,arm_,16455607901611645e35,pass,pass-target,1,8,1645560790161,1432,NA
00ccdc61d8c7e1d75567f4ee807f60da,ID,cannon,cannon,1645560791165,"c,a,n,n,o,n,(Enter)",16455607928011651e74,cannon_,16455607928011651e74,pass,pass-target,1,9,1645560792801,1336,NA
00ccdc61d8c7e1d75567f4ee807f60da,REL,tortoise,swan,1645560794375,"t,o,r,t,o,i,s,e,(Enter)",16455607966481644e100,tortoise_,16455607966481644e100,pass,pass-target,1,10,1645560796648,1973,NA
00ccdc61d8c7e1d75567f4ee807f60da,NEU,leg,XXXXX,1645560798907,"l,e,g,(Enter)",1645560800244165e36,leg_,1645560800244165e36,pass,pass-target,1,11,1645560800244,1037,NA
00ccdc61d8c7e1d75567f4ee807f60da,UNREL,deer,desk,1645560800972,"d,e,e,r,(Enter)",16455608035101647e48,deer_,16455608035101647e48,pass,pass-target,1,12,1645560803510,2238,NA
00ccdc61d8c7e1d75567f4ee807f60da,REL,skirt,sweater,1645560804368,"s,k,i,r,t,(Enter)",16455608062051646e61,skirt_,16455608062051646e61,pass,pass-target,1,13,1645560806205,1537,NA
00ccdc61d8c7e1d75567f4ee807f60da,ID,coat,coat,1645560814279,"c,o,a,t,(Enter)",16455608173811645e48,coat_,16455608173811645e48,pass,pass-target,1,15,1645560817381,2802,NA
00ccdc61d8c7e1d75567f4ee807f60da,UNREL,rabbit,church,1645560818778,"r,a,b,b,i,t,(Enter)",16455608210821655e74,rabbit_,16455608210821655e74,pass,pass-target,1,16,1645560821082,2004,NA
00ccdc61d8c7e1d75567f4ee807f60da,ID,bike,bike,1645560822378,"b,i,k,e,(Enter)",16455608244191653e48,bike_,16455608244191653e48,pass,pass-target,1,17,1645560824419,1741,NA
00ccdc61d8c7e1d75567f4ee807f60da,REL,bed,desk,1645560825265,"b,e,d,(Enter)",16455608271511648e35,bed_,16455608271511648e35,pass,pass-target,1,18,1645560827151,1586,NA
00ccdc61d8c7e1d75567f4ee807f60da,NEU,table,XXXXX,1645560828708,"t,a,b,l,e,(Enter)",16455608302411656e61,table_,16455608302411656e61,pass,pass-target,1,19,1645560830241,1233,NA
00ccdc61d8c7e1d75567f4ee807f60da,UNREL,train,arm,1645560831294,"t,r,a,i,n,(Enter)",16455608332061648e61,train_,16455608332061648e61,pass,pass-target,1,20,1645560833206,1612,NA
00ccdc61d8c7e1d75567f4ee807f60da,REL,windmill,factory,1645560834630,"w,i,n,d,m,i,l,l,(Enter)",1645560836924164e101,windmill_,1645560836924164e101,pass,pass-target,1,21,1645560836924,1994,NA
00ccdc61d8c7e1d75567f4ee807f60da,NEU,jug,XXXXX,1645560838707,"j,u,g,(Enter)",16455608402661646e35,jug_,16455608402661646e35,pass,pass-target,1,22,1645560840266,1259,NA
00ccdc61d8c7e1d75567f4ee807f60da,ID,plate,plate,1645560841052,"p,l,a,t,e,(Enter)",16455608429031643e61,plate_,16455608429031643e61,pass,pass-target,1,23,1645560842903,1551,NA
00ccdc61d8c7e1d75567f4ee807f60da,UNREL,swan,skirt,1645560844338,"s,w,a,n,(Enter)",16455608460011644e48,swan_,16455608460011644e48,pass,pass-target,1,24,1645560846001,1363,NA
00ccdc61d8c7e1d75567f4ee807f60da,ID,bed,bed,1645560847431,"b,e,d,(Enter)",1645560849127164e36,bed_,1645560849127164e36,pass,pass-target,1,25,1645560849127,1396,NA
00ccdc61d8c7e1d75567f4ee807f60da,REL,plane,car,1645560849788,"p,l,a,n,e,(Enter)",16455608513961643e61,plane_,16455608513961643e61,pass,pass-target,1,26,1645560851396,1308,NA
00ccdc61d8c7e1d75567f4ee807f60da,NEU,vest,XXXXX,1645560852992,"v,e,s,t,(Enter)",1645560855435165e49,vest_,1645560855435165e49,pass,pass-target,1,27,1645560855435,2143,NA
00ccdc61d8c7e1d75567f4ee807f60da,UNREL,plane,glass,1645560856339,"p,l,a,n,e,(Enter)",16455608588751646e61,plane_,16455608588751646e61,pass,pass-target,1,28,1645560858875,2236,NA
00ccdc61d8c7e1d75567f4ee807f60da,REL,leg,ear,1645560859983,"l,e,g,(Enter)",1645560861589164e36,leg_,1645560861589164e36,pass,pass-target,1,29,1645560861589,1306,NA
00ccdc61d8c7e1d75567f4ee807f60da,NEU,desk,XXXXX,1645560862301,"d,e,s,k,(Enter)",16455608649401655e48,desk_,16455608649401655e48,pass,pass-target,1,30,1645560864940,2339,NA
00ccdc61d8c7e1d75567f4ee807f60da,ID,arm,arm,1645560866025,"a,r,m,(Enter)",16455608671781646e35,arm_,16455608671781646e35,pass,pass-target,1,31,1645560867178,853,NA
00ccdc61d8c7e1d75567f4ee807f60da,UNREL,dagger,sweater,1645560868538,"d,a,g,g,e,r,(Enter)",1645560871072164e75,dagger_,1645560871072164e75,pass,pass-target,1,32,1645560871072,2234,NA
00ccdc61d8c7e1d75567f4ee807f60da,ID,desk,desk,1645560872184,"d,e,s,k,(Enter)",16455608741341642e48,desk_,16455608741341642e48,pass,pass-target,1,33,1645560874134,1650,NA
00ccdc61d8c7e1d75567f4ee807f60da,REL,train,bike,1645560875338,"t,r,a,i,n,(Enter)",1645560877248165e62,train_,1645560877248165e62,pass,pass-target,1,34,1645560877248,1610,NA
00ccdc61d8c7e1d75567f4ee807f60da,NEU,cup,XXXXX,1645560878434,"c,u,p,(Enter)",1645560880124165e36,cup_,1645560880124165e36,pass,pass-target,1,35,1645560880124,1390,NA
00ccdc61d8c7e1d75567f4ee807f60da,UNREL,skirt,swan,1645560880843,"s,k,i,r,t,(Enter)",1645560882892165e62,skirt_,1645560882892165e62,pass,pass-target,1,36,1645560882892,1749,NA
00ccdc61d8c7e1d75567f4ee807f60da,REL,car,plane,1645560883970,"c,a,r,(Enter)",16455608858551644e35,car_,16455608858551644e35,pass,pass-target,1,37,1645560885855,1585,NA
00ccdc61d8c7e1d75567f4ee807f60da,NEU,train,XXXXX,1645560886487,"t,r,a,i,n,(Enter)",16455608880791645e61,train_,16455608880791645e61,pass,pass-target,1,38,1645560888079,1292,NA
00ccdc61d8c7e1d75567f4ee807f60da,ID,skirt,skirt,1645560889413,"s,k,i,r,t,(Enter)",16455608909361633e61,skirt_,16455608909361633e61,pass,pass-target,1,39,1645560890936,1223,NA
00ccdc61d8c7e1d75567f4ee807f60da,ID,glass,glass,1645560896538,"g,l,a,s,s,(Enter)",16455608991201648e61,glass_,16455608991201648e61,pass,pass-target,1,41,1645560899120,2282,NA
00ccdc61d8c7e1d75567f4ee807f60da,REL,desk,bed,1645560900709,"d,e,s,k,(Enter)",1645560903325165e49,desk_,1645560903325165e49,pass,pass-target,1,42,1645560903325,2316,NA
00ccdc61d8c7e1d75567f4ee807f60da,NEU,car,XXXXX,1645560904515,"c,a,r,(Enter)",16455609061041645e35,car_,16455609061041645e35,pass,pass-target,1,43,1645560906104,1289,NA
00ccdc61d8c7e1d75567f4ee807f60da,UNREL,tortoise,cup,1645560906789,"t,o,r,t,o,i,s,e,(Enter)",16455609085861642e100,tortoise_,16455609085861642e100,pass,pass-target,1,44,1645560908586,1497,NA
00ccdc61d8c7e1d75567f4ee807f60da,REL,wardrobe,table,1645560911120,"w,a,r,d,r,o,b,e,(Enter)",16455609132471647e100,wardrobe_,16455609132471647e100,pass,pass-target,1,45,1645560913247,1827,NA
00ccdc61d8c7e1d75567f4ee807f60da,NEU,plane,XXXXX,1645560915592,"p,l,a,n,e,(Enter)",1645560916881165e62,plane_,1645560916881165e62,pass,pass-target,1,46,1645560916881,989,NA
00ccdc61d8c7e1d75567f4ee807f60da,ID,church,church,1645560918000,"c,h,u,r,c,h,(Enter)",1645560920039165e75,church_,1645560920039165e75,pass,pass-target,1,47,1645560920039,1739,NA
00ccdc61d8c7e1d75567f4ee807f60da,ID,swan,swan,1645560924476,"s,w,a,n,(Enter)",1645560926005164e49,swan_,1645560926005164e49,pass,pass-target,1,49,1645560926005,1229,NA
00ccdc61d8c7e1d75567f4ee807f60da,REL,bike,train,1645560927160,"b,i,k,e,(Enter)",16455609287481642e48,bike_,16455609287481642e48,pass,pass-target,1,50,1645560928748,1288,NA
00ccdc61d8c7e1d75567f4ee807f60da,UNREL,pistol,bed,1645560933836,"p,i,s,t,o,l,(Enter)",16455609358031646e74,pistol_,16455609358031646e74,pass,pass-target,1,52,1645560935803,1667,NA
00ccdc61d8c7e1d75567f4ee807f60da,REL,swan,tortoise,1645560937606,"s,w,a,n,(Enter)",1645560939335164e49,swan_,1645560939335164e49,pass,pass-target,1,53,1645560939335,1429,NA
00ccdc61d8c7e1d75567f4ee807f60da,ID,ear,ear,1645560944992,"e,a,r,(Enter)",1645560946557165e36,ear_,1645560946557165e36,pass,pass-target,1,55,1645560946557,1265,NA
00ccdc61d8c7e1d75567f4ee807f60da,ID,leg,leg,1645560951794,"l,e,g,(Enter)",16455609531861644e35,leg_,16455609531861644e35,pass,pass-target,1,57,1645560953186,1092,NA
00ccdc61d8c7e1d75567f4ee807f60da,NEU,arm,XXXXX,1645560959764,"a,r,m,(Enter)",16455609609421643e35,arm_,16455609609421643e35,pass,pass-target,1,59,1645560960942,878,NA
00ccdc61d8c7e1d75567f4ee807f60da,UNREL,sword,table,1645560961830,"s,w,o,r,d,(Enter)",16455609637761644e61,sword_,16455609637761644e61,pass,pass-target,1,60,1645560963776,1646,NA
00ccdc61d8c7e1d75567f4ee807f60da,REL,sweater,skirt,1645560965433,"s,w,e,a,t,e,r,(Enter)",1645560967425166e88,sweater_,1645560967425166e88,pass,pass-target,1,61,1645560967425,1692,NA
00ccdc61d8c7e1d75567f4ee807f60da,NEU,plate,XXXXX,1645560969486,"p,l,a,t,e,(Enter)",16455609710571645e61,plate_,16455609710571645e61,pass,pass-target,1,62,1645560971057,1271,NA
00ccdc61d8c7e1d75567f4ee807f60da,ID,plane,plane,1645560972109,"p,l,a,n,e,(Enter)",16455609738591638e61,plane_,16455609738591638e61,pass,pass-target,1,63,1645560973859,1450,NA
00ccdc61d8c7e1d75567f4ee807f60da,UNREL,car,leg,1645560975020,"c,a,r,(Enter)",16455609767991644e35,car_,16455609767991644e35,pass,pass-target,1,64,1645560976799,1479,NA
00ccdc61d8c7e1d75567f4ee807f60da,ID,castle,castle,1645560977553,"c,a,s,t,l,e,(Enter)",16455609798881652e74,castle_,16455609798881652e74,pass,pass-target,1,65,1645560979888,2035,NA
00ccdc61d8c7e1d75567f4ee807f60da,UNREL,jug,windmill,1645560995010,"j,u,g,(Enter)",16455609969301645e35,jug_,16455609969301645e35,pass,pass-target,1,68,1645560996930,1620,NA
00ccdc61d8c7e1d75567f4ee807f60da,NEU,wardrobe,XXXXX,1645561002730,"w,a,r,d,r,o,b,e,(Enter)",1645561004576165e101,wardrobe_,1645561004576165e101,pass,pass-target,1,70,1645561004576,1546,NA
00ccdc61d8c7e1d75567f4ee807f60da,ID,jug,jug,1645561006662,"j,u,g,(Enter)",1645561008045165e36,jug_,1645561008045165e36,pass,pass-target,1,71,1645561008045,1083,NA
00ccdc61d8c7e1d75567f4ee807f60da,UNREL,bike,wardrobe,1645561008842,"b,i,k,e,(Enter)",16455610108801647e48,bike_,16455610108801647e48,pass,pass-target,1,72,1645561010880,1738,NA
00ccdc61d8c7e1d75567f4ee807f60da,REL,factory,windmill,1645561015525,"f,a,c,t,o,r,y,(Enter)",16455610177721653e87,factory_,16455610177721653e87,pass,pass-target,1,74,1645561017772,1947,NA
00ccdc61d8c7e1d75567f4ee807f60da,NEU,bike,XXXXX,1645561019678,"b,i,k,e,(Enter)",16455610213041632e48,bike_,16455610213041632e48,pass,pass-target,1,75,1645561021304,1326,NA
00ccdc61d8c7e1d75567f4ee807f60da,UNREL,nose,factory,1645561022250,"n,o,s,e,(Enter)",16455610239001642e48,nose_,16455610239001642e48,pass,pass-target,1,76,1645561023900,1350,NA
00ccdc61d8c7e1d75567f4ee807f60da,REL,vest,coat,1645561024813,"v,e,s,t,(Enter)",16455610269251645e48,vest_,16455610269251645e48,pass,pass-target,1,77,1645561026925,1812,NA
00ccdc61d8c7e1d75567f4ee807f60da,ID,train,train,1645561031334,"t,r,a,i,n,(Enter)",16455610344691645e61,train_,16455610344691645e61,pass,pass-target,1,79,1645561034469,2835,NA
00ccdc61d8c7e1d75567f4ee807f60da,UNREL,windmill,jug,1645561035820,"w,i,n,d,m,i,l,l,(Enter)",16455610379041633e100,windmill_,16455610379041633e100,pass,pass-target,1,80,1645561037904,1784,NA
00ccdc61d8c7e1d75567f4ee807f60da,NEU,dagger,XXXXX,1645561048621,"d,a,g,g,e,r,(Enter)",16455610516941642e74,dagger_,16455610516941642e74,pass,pass-target,1,83,1645561051694,2773,NA
00ccdc61d8c7e1d75567f4ee807f60da,UNREL,church,rabbit,1645561052807,"c,h,u,r,c,h,(Enter)",16455610548801646e74,church_,16455610548801646e74,pass,pass-target,1,84,1645561054880,1773,NA
00ccdc61d8c7e1d75567f4ee807f60da,REL,glass,plate,1645561056715,"g,l,a,s,s,(Enter)",16455610587461648e61,glass_,16455610587461648e61,pass,pass-target,1,85,1645561058746,1731,NA
00ccdc61d8c7e1d75567f4ee807f60da,ID,sweater,sweater,1645561076161,"s,w,e,a,t,e,r,(Enter)",1645561078097164e88,sweater_,1645561078097164e88,pass,pass-target,1,89,1645561078097,1636,NA
00ccdc61d8c7e1d75567f4ee807f60da,REL,deer,rabbit,1645561080191,"d,e,e,r,(Enter)",16455610818531644e48,deer_,16455610818531644e48,pass,pass-target,1,90,1645561081853,1362,NA
00ccdc61d8c7e1d75567f4ee807f60da,NEU,cannon,XXXXX,1645561082819,"c,a,n,n,o,n,(Enter)",1645561084420163e75,cannon_,1645561084420163e75,pass,pass-target,1,91,1645561084420,1301,NA
00ccdc61d8c7e1d75567f4ee807f60da,REL,cannon,pistol,1645561090369,"c,a,n,n,o,n,(Enter)",16455610924751638e74,cannon_,16455610924751638e74,pass,pass-target,1,93,1645561092475,1806,NA
00ccdc61d8c7e1d75567f4ee807f60da,ID,nose,nose,1645561098426,"n,o,s,e,(Enter)",1645561099778165e49,nose_,1645561099778165e49,pass,pass-target,1,95,1645561099778,1052,NA
00ccdc61d8c7e1d75567f4ee807f60da,UNREL,cup,tortoise,1645561100626,"c,u,p,(Enter)",16455611027671643e35,cup_,16455611027671643e35,pass,pass-target,1,96,1645561102767,1841,NA
00ccdc61d8c7e1d75567f4ee807f60da,ID,vest,vest,1645561103572,"v,e,s,t,(Enter)",16455611051131646e48,vest_,16455611051131646e48,pass,pass-target,1,97,1645561105113,1241,NA
00ccdc61d8c7e1d75567f4ee807f60da,NEU,rabbit,XXXXX,1645561109744,"r,a,b,b,i,t,(Enter)",16455611113561642e74,rabbit_,16455611113561642e74,pass,pass-target,1,99,1645561111356,1312,NA
00ccdc61d8c7e1d75567f4ee807f60da,REL,dagger,sword,1645561115497,"d,a,g,g,e,r,(Enter)",16455611179811643e74,dagger_,16455611179811643e74,pass,pass-target,1,101,1645561117981,2184,NA
00ccdc61d8c7e1d75567f4ee807f60da,ID,tortoise,tortoise,1645561122290,"t,o,r,t,o,i,s,e,(Enter)",1645561124545166e101,tortoise_,1645561124545166e101,pass,pass-target,1,103,1645561124545,1955,NA
00ccdc61d8c7e1d75567f4ee807f60da,ID,dagger,dagger,1645561130490,"d,a,g,g,e,r,(Enter)",1645561132583164e75,dagger_,1645561132583164e75,pass,pass-target,1,105,1645561132583,1793,NA
00ccdc61d8c7e1d75567f4ee807f60da,REL,jug,cup,1645561133635,"j,u,g,(Enter)",16455611352561643e35,jug_,16455611352561643e35,pass,pass-target,1,106,1645561135256,1321,NA
00ccdc61d8c7e1d75567f4ee807f60da,NEU,skirt,XXXXX,1645561135974,"s,k,i,r,t,(Enter)",1645561137632164e62,skirt_,1645561137632164e62,pass,pass-target,1,107,1645561137632,1358,NA
00ccdc61d8c7e1d75567f4ee807f60da,UNREL,coat,castle,1645561138719,"c,o,a,t,(Enter)",16455611407221644e48,coat_,16455611407221644e48,pass,pass-target,1,108,1645561140722,1703,NA
00ccdc61d8c7e1d75567f4ee807f60da,REL,cup,jug,1645561142013,"c,u,p,(Enter)",16455611438541646e35,cup_,16455611438541646e35,pass,pass-target,1,109,1645561143854,1541,NA
00ccdc61d8c7e1d75567f4ee807f60da,NEU,windmill,XXXXX,1645561144600,"w,i,n,d,m,i,l,l,(Enter)",16455611465291645e100,windmill_,16455611465291645e100,pass,pass-target,1,110,1645561146529,1629,NA
00ccdc61d8c7e1d75567f4ee807f60da,ID,car,car,1645561149755,"c,a,r,(Enter)",16455611513721645e35,car_,16455611513721645e35,pass,pass-target,1,111,1645561151372,1317,NA
00ccdc61d8c7e1d75567f4ee807f60da,UNREL,glass,cannon,1645561151997,"g,l,a,s,s,(Enter)",16455611543451647e61,glass_,16455611543451647e61,pass,pass-target,1,112,1645561154345,2048,NA
00ccdc61d8c7e1d75567f4ee807f60da,ID,rabbit,rabbit,1645561155936,"r,a,b,b,i,t,(Enter)",1645561158176164e75,rabbit_,1645561158176164e75,pass,pass-target,1,113,1645561158176,1940,NA
00ccdc61d8c7e1d75567f4ee807f60da,NEU,swan,XXXXX,1645561164470,"s,w,a,n,(Enter)",16455611657471647e48,swan_,16455611657471647e48,pass,pass-target,1,115,1645561165747,977,NA
00ccdc61d8c7e1d75567f4ee807f60da,UNREL,wardrobe,bike,1645561167134,"w,a,r,d,r,o,b,e,(Enter)",16455611690021634e100,wardrobe_,16455611690021634e100,pass,pass-target,1,116,1645561169002,1568,NA
00ccdc61d8c7e1d75567f4ee807f60da,REL,arm,nose,1645561171469,"a,r,m,(Enter)",1645561173373165e36,arm_,1645561173373165e36,pass,pass-target,1,117,1645561173373,1604,NA
00ccdc61d8c7e1d75567f4ee807f60da,NEU,deer,XXXXX,1645561174274,"d,e,e,r,(Enter)",1645561175727164e49,deer_,1645561175727164e49,pass,pass-target,1,118,1645561175727,1153,NA
00ccdc61d8c7e1d75567f4ee807f60da,ID,sword,sword,1645561176598,"s,w,o,r,d,(Enter)",16455611781571637e61,sword_,16455611781571637e61,pass,pass-target,1,119,1645561178157,1259,NA
00ccdc61d8c7e1d75567f4ee807f60da,UNREL,leg,car,1645561180161,"l,e,g,(Enter)",1645561182439165e36,leg_,1645561182439165e36,pass,pass-target,1,120,1645561182439,1978,NA
00ccdc61d8c7e1d75567f4ee807f60da,ID,factory,factory,1645561183317,"f,a,c,t,o,r,y,(Enter)",16455611846481638e87,factory_,16455611846481638e87,pass,pass-target,1,121,1645561184648,1031,NA
00ccdc61d8c7e1d75567f4ee807f60da,REL,ear,leg,1645561186251,"e,a,r,(Enter)",1645561187858165e36,ear_,1645561187858165e36,pass,pass-target,1,122,1645561187858,1307,NA
00ccdc61d8c7e1d75567f4ee807f60da,NEU,bed,XXXXX,1645561188617,"b,e,d,(Enter)",16455611901851653e35,bed_,16455611901851653e35,pass,pass-target,1,123,1645561190185,1268,NA
00ccdc61d8c7e1d75567f4ee807f60da,UNREL,ear,vest,1645561190801,"e,a,r,(Enter)",16455611928561653e35,ear_,16455611928561653e35,pass,pass-target,1,124,1645561192856,1755,NA
00ccdc61d8c7e1d75567f4ee807f60da,REL,table,wardrobe,1645561193684,"t,a,b,l,e,(Enter)",1645561195561165e62,table_,1645561195561165e62,pass,pass-target,1,125,1645561195561,1577,NA
00ccdc61d8c7e1d75567f4ee807f60da,NEU,sword,XXXXX,1645561196808,"s,w,o,r,d,(Enter)",16455611994421636e61,sword_,16455611994421636e61,pass,pass-target,1,126,1645561199442,2334,NA
00ccdc61d8c7e1d75567f4ee807f60da,ID,deer,deer,1645561200640,"d,e,e,r,(Enter)",1645561202115164e49,deer_,1645561202115164e49,pass,pass-target,1,127,1645561202115,1175,NA
00ccdc61d8c7e1d75567f4ee807f60da,UNREL,bed,pistol,1645561203306,"b,e,d,(Enter)",1645561205855164e36,bed_,1645561205855164e36,pass,pass-target,1,128,1645561205855,2249,NA
030ad01f9bfb7ac7493ac356817f6804,ID,cannon,cannon,1645570431330,"(CapsLock),C,A,N,N,O,N,(Enter)",16455704365181644e87,cannon_,16455704372711647e74,pass,pass-target,2,1,1645570437271,5641,NA
030ad01f9bfb7ac7493ac356817f6804,REL,coat,vest,1645570439672,"C,O,A,T,(Enter)",16455704420031642e48,coat_,16455704420031642e48,pass,pass-target,2,2,1645570442003,2031,NA
030ad01f9bfb7ac7493ac356817f6804,NEU,bed,XXXXX,1645570442593,"B,E,D,(Enter)",1645570444010164e36,bed_,1645570444010164e36,pass,pass-target,2,3,1645570444010,1117,NA
030ad01f9bfb7ac7493ac356817f6804,UNREL,leg,car,1645570444586,"L,E,G,(Enter)",16455704460731644e35,leg_,16455704460731644e35,pass,pass-target,2,4,1645570446073,1187,NA
030ad01f9bfb7ac7493ac356817f6804,NEU,ear,XXXXX,1645570475611,"E,A,R,(Enter)",1645570476898165e36,ear_,1645570476898165e36,pass,pass-target,2,6,1645570476898,987,NA
030ad01f9bfb7ac7493ac356817f6804,ID,church,church,1645570477555,"C,H,U,R,C,H,(Enter)",1645570478712164e75,church_,1645570478712164e75,pass,pass-target,2,7,1645570478712,857,NA
030ad01f9bfb7ac7493ac356817f6804,UNREL,coat,castle,1645570479752,"C,O,A,T,(Enter)",16455704821741648e48,coat_,16455704821741648e48,pass,pass-target,2,8,1645570482174,2122,NA
030ad01f9bfb7ac7493ac356817f6804,ID,swan,swan,1645570482641,"S,W,A,N,(Enter)",16455704841541646e48,swan_,16455704841541646e48,pass,pass-target,2,9,1645570484154,1213,NA
030ad01f9bfb7ac7493ac356817f6804,REL,sweater,skirt,1645570485144,"S,W,E,A,T,E,R,(Enter)",16455704869661642e87,sweater_,16455704869661642e87,pass,pass-target,2,10,1645570486966,1522,NA
030ad01f9bfb7ac7493ac356817f6804,NEU,castle,XXXXX,1645570488630,"C,A,S,T,L,E,(Enter)",1645570490022165e75,castle_,1645570490022165e75,pass,pass-target,2,11,1645570490022,1092,NA
030ad01f9bfb7ac7493ac356817f6804,UNREL,ear,vest,1645570490992,"E,A,R,(Enter)",1645570492160164e36,ear_,1645570492160164e36,pass,pass-target,2,12,1645570492160,868,NA
030ad01f9bfb7ac7493ac356817f6804,REL,nose,arm,1645570492640,"N,O,S,E,(Enter)",16455704938311636e48,nose_,16455704938311636e48,pass,pass-target,2,13,1645570493831,891,NA
030ad01f9bfb7ac7493ac356817f6804,NEU,train,XXXXX,1645570494355,"T,R,A,I,N,(Enter)",16455704960261647e61,train_,16455704960261647e61,pass,pass-target,2,14,1645570496026,1371,NA
030ad01f9bfb7ac7493ac356817f6804,ID,plane,plane,1645570496716,"P,L,A,N,E,(Enter)",16455704980371649e61,plane_,16455704980371649e61,pass,pass-target,2,15,1645570498037,1021,NA
030ad01f9bfb7ac7493ac356817f6804,UNREL,table,sword,1645570498819,"T,A,B,L,E,(Enter)",16455705002071642e61,table_,16455705002071642e61,pass,pass-target,2,16,1645570500207,1088,NA
030ad01f9bfb7ac7493ac356817f6804,REL,church,castle,1645570527390,"C,H,U,R,C,H,(Enter)",16455705289031656e74,church_,16455705289031656e74,pass,pass-target,2,18,1645570528903,1213,NA
030ad01f9bfb7ac7493ac356817f6804,NEU,sweater,XXXXX,1645570530228,"S,W,E,A,T,E,R,(Enter)",1645570534681165e88,sweater_,1645570534681165e88,pass,pass-target,2,19,1645570534681,4153,NA
030ad01f9bfb7ac7493ac356817f6804,UNREL,cannon,plate,1645570536216,"C,A,N,N,O,N,(Enter)",1645570537460165e75,cannon_,1645570537460165e75,pass,pass-target,2,20,1645570537460,944,NA
030ad01f9bfb7ac7493ac356817f6804,REL,windmill,factory,1645570538804,"W,I,N,D,M,I,L,L,(Enter)",1645570540216164e101,windmill_,1645570540216164e101,pass,pass-target,2,21,1645570540216,1112,NA
030ad01f9bfb7ac7493ac356817f6804,NEU,rabbit,XXXXX,1645570542042,"R,A,B,B,I,T,(Enter)",16455705432331646e74,rabbit_,16455705432331646e74,pass,pass-target,2,22,1645570543233,891,NA
030ad01f9bfb7ac7493ac356817f6804,ID,wardrobe,wardrobe,1645570544124,"W,A,R,D,R,O,B,E,(Enter)",16455705491061654e100,wardrobe_,16455705491061654e100,pass,pass-target,2,23,1645570549106,4682,NA
030ad01f9bfb7ac7493ac356817f6804,UNREL,factory,nose,1645570550499,"F,A,C,T,O,R,Y,(Enter)",1645570552048165e88,factory_,1645570552048165e88,pass,pass-target,2,24,1645570552048,1249,NA
030ad01f9bfb7ac7493ac356817f6804,ID,cup,cup,1645570552986,"C,U,P,(Enter)",16455705540331642e35,cup_,16455705540331642e35,pass,pass-target,2,25,1645570554033,747,NA
030ad01f9bfb7ac7493ac356817f6804,REL,vest,coat,1645570554544,"V,E,S,T,(Enter)",16455705563401662e48,vest_,16455705563401662e48,pass,pass-target,2,26,1645570556340,1496,NA
030ad01f9bfb7ac7493ac356817f6804,NEU,windmill,XXXXX,1645570556884,"W,I,N,D,M,I,L,L,(Enter)",1645570558778165e101,windmill_,1645570558778165e101,pass,pass-target,2,27,1645570558778,1594,NA
030ad01f9bfb7ac7493ac356817f6804,UNREL,skirt,swan,1645570560329,"S,K,I,R,T,(Enter)",16455705619221654e61,skirt_,16455705619221654e61,pass,pass-target,2,28,1645570561922,1293,NA
030ad01f9bfb7ac7493ac356817f6804,REL,bike,train,1645570562919,"B,I,K,E,(Enter)",16455705642221643e48,bike_,16455705642221643e48,pass,pass-target,2,29,1645570564222,1003,NA
030ad01f9bfb7ac7493ac356817f6804,ID,pistol,pistol,1645570571509,"P,I,S,T,O,L,(Enter)",16455705728611649e74,pistol_,16455705728611649e74,pass,pass-target,2,31,1645570572861,1052,NA
030ad01f9bfb7ac7493ac356817f6804,UNREL,desk,deer,1645570573791,"D,E,S,K,(Enter)",16455705749951633e48,desk_,16455705749951633e48,pass,pass-target,2,32,1645570574995,904,NA
030ad01f9bfb7ac7493ac356817f6804,ID,bike,bike,1645570575864,"B,I,K,E,(Enter)",1645570576947163e49,bike_,1645570576947163e49,pass,pass-target,2,33,1645570576947,783,NA
030ad01f9bfb7ac7493ac356817f6804,NEU,factory,XXXXX,1645570579515,"F,A,C,T,O,R,Y,(Enter)",1645570580651163e88,factory_,1645570580651163e88,pass,pass-target,2,35,1645570580651,836,NA
030ad01f9bfb7ac7493ac356817f6804,UNREL,jug,windmill,1645570581784,"J,U,G,(Enter)",1645570597388164e36,jug_,1645570597388164e36,pass,pass-target,2,36,1645570597388,15304,NA
030ad01f9bfb7ac7493ac356817f6804,REL,swan,tortoise,1645570597882,"S,W,A,N,(Enter)",1645570599642165e49,swan_,1645570599642165e49,pass,pass-target,2,37,1645570599642,1460,NA
030ad01f9bfb7ac7493ac356817f6804,NEU,plane,XXXXX,1645570600962,"P,L,A,N,E,(Enter)",16455706022841646e61,plane_,16455706022841646e61,pass,pass-target,2,38,1645570602284,1022,NA
030ad01f9bfb7ac7493ac356817f6804,ID,coat,coat,1645570603049,"C,O,A,T,(Enter)",16455706042321633e48,coat_,16455706042321633e48,pass,pass-target,2,39,1645570604232,883,NA
030ad01f9bfb7ac7493ac356817f6804,UNREL,arm,train,1645570604690,"A,R,M,(Enter)",1645570606024164e36,arm_,1645570606024164e36,pass,pass-target,2,40,1645570606024,1034,NA
030ad01f9bfb7ac7493ac356817f6804,ID,windmill,windmill,1645570606467,"W,I,N,D,M,I,L,L,(Enter)",16455706077561646e100,windmill_,16455706077561646e100,pass,pass-target,2,41,1645570607756,989,NA
030ad01f9bfb7ac7493ac356817f6804,REL,plate,glass,1645570608879,"P,L,A,T,E,(Enter)",16455706105281638e61,plate_,16455706105281638e61,pass,pass-target,2,42,1645570610528,1349,NA
030ad01f9bfb7ac7493ac356817f6804,NEU,desk,XXXXX,1645570611153,"D,E,S,K,(Enter)",16455706122381635e48,desk_,16455706122381635e48,pass,pass-target,2,43,1645570612238,785,NA
030ad01f9bfb7ac7493ac356817f6804,REL,table,wardrobe,1645570617549,"T,A,B,L,E,(Enter)",1645570619100165e62,table_,1645570619100165e62,pass,pass-target,2,45,1645570619100,1251,NA
030ad01f9bfb7ac7493ac356817f6804,NEU,glass,XXXXX,1645570619728,"G,L,A,S,S,(Enter)",1645570621777164e62,glass_,1645570621777164e62,pass,pass-target,2,46,1645570621777,1749,NA
030ad01f9bfb7ac7493ac356817f6804,ID,ear,ear,1645570622656,"E,A,R,(Enter)",16455706237941645e35,ear_,16455706237941645e35,pass,pass-target,2,47,1645570623794,838,NA
030ad01f9bfb7ac7493ac356817f6804,UNREL,sweater,dagger,1645570624203,"S,W,E,A,T,E,R,(Enter)",1645570625439165e88,sweater_,1645570625439165e88,pass,pass-target,2,48,1645570625439,936,NA
030ad01f9bfb7ac7493ac356817f6804,ID,table,table,1645570627094,"T,A,B,L,E,(Enter)",1645570628196164e62,table_,1645570628196164e62,pass,pass-target,2,49,1645570628196,802,NA
030ad01f9bfb7ac7493ac356817f6804,REL,factory,windmill,1645570628943,"F,A,C,T,O,R,Y,(Enter)",16455706303781654e87,factory_,16455706303781654e87,pass,pass-target,2,50,1645570630378,1135,NA
030ad01f9bfb7ac7493ac356817f6804,NEU,cup,XXXXX,1645570631532,"C,U,P,(Enter)",16455706326801643e35,cup_,16455706326801643e35,pass,pass-target,2,51,1645570632680,848,NA
030ad01f9bfb7ac7493ac356817f6804,UNREL,bed,pistol,1645570633112,"B,E,D,(Enter)",1645570634273165e36,bed_,1645570634273165e36,pass,pass-target,2,52,1645570634273,861,NA
030ad01f9bfb7ac7493ac356817f6804,REL,castle,church,1645570634760,"C,A,S,T,L,E,(Enter)",16455706360951633e74,castle_,16455706360951633e74,pass,pass-target,2,53,1645570636095,1035,NA
030ad01f9bfb7ac7493ac356817f6804,NEU,deer,XXXXX,1645570637173,"D,E,E,R,(Enter)",16455706382021645e48,deer_,16455706382021645e48,pass,pass-target,2,54,1645570638202,729,NA
030ad01f9bfb7ac7493ac356817f6804,ID,factory,factory,1645570638877,"F,A,C,T,O,R,Y,(Enter)",1645570639875165e88,factory_,1645570639875165e88,pass,pass-target,2,55,1645570639875,698,NA
030ad01f9bfb7ac7493ac356817f6804,UNREL,castle,coat,1645570640867,"C,A,S,T,L,E,(Enter)",16455706419511643e74,castle_,16455706419511643e74,pass,pass-target,2,56,1645570641951,784,NA
030ad01f9bfb7ac7493ac356817f6804,ID,arm,arm,1645570642808,"A,R,M,(Enter)",16455706437771644e35,arm_,16455706437771644e35,pass,pass-target,2,57,1645570643777,669,NA
030ad01f9bfb7ac7493ac356817f6804,REL,skirt,sweater,1645570644305,"S,K,I,R,T,(Enter)",16455706456541646e61,skirt_,16455706456541646e61,pass,pass-target,2,58,1645570645654,1049,NA
030ad01f9bfb7ac7493ac356817f6804,NEU,cannon,XXXXX,1645570646394,"C,A,N,N,O,N,(Enter)",16455706476741632e74,cannon_,16455706476741632e74,pass,pass-target,2,59,1645570647674,980,NA
030ad01f9bfb7ac7493ac356817f6804,UNREL,wardrobe,bike,1645570648824,"W,A,R,D,R,O,B,E,(Enter)",16455706503871644e100,wardrobe_,16455706503871644e100,pass,pass-target,2,60,1645570650387,1263,NA
030ad01f9bfb7ac7493ac356817f6804,REL,cannon,pistol,1645570651950,"C,A,N,N,O,N,(Enter)",16455706534321648e74,cannon_,16455706534321648e74,pass,pass-target,2,61,1645570653432,1182,NA
030ad01f9bfb7ac7493ac356817f6804,NEU,jug,XXXXX,1645570654399,"J,U,G,(Enter)",16455706587961653e35,jug_,16455706587961653e35,pass,pass-target,2,62,1645570658796,4097,NA
030ad01f9bfb7ac7493ac356817f6804,ID,desk,desk,1645570659844,"D,E,S,K,(Enter)",16455706610861648e48,desk_,16455706610861648e48,pass,pass-target,2,63,1645570661086,942,NA
030ad01f9bfb7ac7493ac356817f6804,UNREL,bike,wardrobe,1645570662118,"B,I,K,E,(Enter)",16455706632271647e48,bike_,16455706632271647e48,pass,pass-target,2,64,1645570663227,809,NA
030ad01f9bfb7ac7493ac356817f6804,ID,sweater,sweater,1645570663803,"S,W,E,A,T,E,R,(Enter)",16455706647871644e87,sweater_,16455706647871644e87,pass,pass-target,2,65,1645570664787,684,NA
030ad01f9bfb7ac7493ac356817f6804,NEU,swan,XXXXX,1645570668491,"S,W,A,N,(Enter)",16455706694731644e48,swan_,16455706694731644e48,pass,pass-target,2,67,1645570669473,682,NA
030ad01f9bfb7ac7493ac356817f6804,UNREL,plate,cannon,1645570670150,"P,L,A,T,E,(Enter)",16455706714931643e61,plate_,16455706714931643e61,pass,pass-target,2,68,1645570671493,1043,NA
030ad01f9bfb7ac7493ac356817f6804,REL,rabbit,deer,1645570672097,"R,A,B,B,I,T,(Enter)",16455706733961653e74,rabbit_,16455706733961653e74,pass,pass-target,2,69,1645570673396,999,NA
030ad01f9bfb7ac7493ac356817f6804,NEU,sword,XXXXX,1645570674746,"S,W,O,R,D,(Enter)",1645570675815165e62,sword_,1645570675815165e62,pass,pass-target,2,70,1645570675815,769,NA
030ad01f9bfb7ac7493ac356817f6804,ID,nose,nose,1645570676655,"N,O,S,E,(Enter)",1645570677688164e49,nose_,1645570677688164e49,pass,pass-target,2,71,1645570677688,733,NA
030ad01f9bfb7ac7493ac356817f6804,UNREL,windmill,jug,1645570678268,"W,I,N,D,M,I,L,L,(Enter)",16455706796301652e100,windmill_,16455706796301652e100,pass,pass-target,2,72,1645570679630,1062,NA
030ad01f9bfb7ac7493ac356817f6804,REL,plane,car,1645570684088,"P,L,A,N,E,(Enter)",1645570685282163e62,plane_,1645570685282163e62,pass,pass-target,2,74,1645570685282,894,NA
030ad01f9bfb7ac7493ac356817f6804,NEU,dagger,XXXXX,1645570686127,"D,A,G,G,E,R,(Enter)",1645570687668166e75,dagger_,1645570687668166e75,pass,pass-target,2,75,1645570687668,1241,NA
030ad01f9bfb7ac7493ac356817f6804,UNREL,church,rabbit,1645570688713,"C,H,U,R,C,H,H,(Enter)",16455706900251653e87,churchh_,16455706900251653e87,pass,pass-target,2,76,1645570690025,1012,NA
030ad01f9bfb7ac7493ac356817f6804,REL,car,plane,1645570691443,"C,A,R,(Enter)",16455706927611643e35,car_,16455706927611643e35,pass,pass-target,2,77,1645570692761,1018,NA
030ad01f9bfb7ac7493ac356817f6804,NEU,nose,XXXXX,1645570693210,"N,O,S,E,(Enter)",1645570694321165e49,nose_,1645570694321165e49,pass,pass-target,2,78,1645570694321,811,NA
030ad01f9bfb7ac7493ac356817f6804,UNREL,vest,ear,1645570698080,"V,E,S,T,(Enter)",1645570700069165e49,vest_,1645570700069165e49,pass,pass-target,2,80,1645570700069,1689,NA
030ad01f9bfb7ac7493ac356817f6804,ID,leg,leg,1645570700725,"L,E,G,(Enter)",16455707036951642e35,leg_,16455707036951642e35,pass,pass-target,2,81,1645570703695,2670,NA
030ad01f9bfb7ac7493ac356817f6804,REL,desk,bed,1645570704136,"D,E,S,K,(Enter)",16455707057121635e48,desk_,16455707057121635e48,pass,pass-target,2,82,1645570705712,1276,NA
030ad01f9bfb7ac7493ac356817f6804,NEU,vest,XXXXX,1645570706551,"V,E,S,T,(Enter)",16455707080011647e48,vest_,16455707080011647e48,pass,pass-target,2,83,1645570708001,1150,NA
030ad01f9bfb7ac7493ac356817f6804,UNREL,nose,factory,1645570708610,"N,O,S,E,(Enter)",16455707101921647e48,nose_,16455707101921647e48,pass,pass-target,2,84,1645570710192,1282,NA
030ad01f9bfb7ac7493ac356817f6804,REL,leg,ear,1645570710759,"L,E,G,(Enter)",16455707120101646e35,leg_,16455707120101646e35,pass,pass-target,2,85,1645570712010,951,NA
030ad01f9bfb7ac7493ac356817f6804,NEU,skirt,XXXXX,1645570712476,"S,K,I,R,T,(Enter)",16455707136701645e61,skirt_,16455707136701645e61,pass,pass-target,2,86,1645570713670,894,NA
030ad01f9bfb7ac7493ac356817f6804,ID,jug,jug,1645570714652,"J,U,G,(Enter)",1645570715756164e36,jug_,1645570715756164e36,pass,pass-target,2,87,1645570715756,804,NA
030ad01f9bfb7ac7493ac356817f6804,UNREL,car,leg,1645570716364,"C,A,R,(Enter)",1645570717602164e36,car_,1645570717602164e36,pass,pass-target,2,88,1645570717602,938,NA
030ad01f9bfb7ac7493ac356817f6804,ID,castle,castle,1645570718078,"C,A,S,T,L,E,(Enter)",16455707190981633e74,castle_,16455707190981633e74,pass,pass-target,2,89,1645570719098,720,NA
030ad01f9bfb7ac7493ac356817f6804,NEU,bike,XXXXX,1645570723088,"B,I,K,E,(Enter)",1645570724157164e49,bike_,1645570724157164e49,pass,pass-target,2,91,1645570724157,769,NA
030ad01f9bfb7ac7493ac356817f6804,REL,arm,nose,1645570727359,"A,R,M,(Enter)",16455707287191643e35,arm_,16455707287191643e35,pass,pass-target,2,93,1645570728719,1060,NA
030ad01f9bfb7ac7493ac356817f6804,NEU,wardrobe,XXXXX,1645570729301,"W,A,R,D,R,O,B,E,(Enter)",1645570730717165e101,wardrobe_,1645570730717165e101,pass,pass-target,2,94,1645570730717,1116,NA
030ad01f9bfb7ac7493ac356817f6804,ID,plate,plate,1645570732100,"P,L,A,T,E,(Enter)",16455707335441639e61,plate_,16455707335441639e61,pass,pass-target,2,95,1645570733544,1144,NA
030ad01f9bfb7ac7493ac356817f6804,UNREL,glass,cannon,1645570734268,"G,L,A,S,S,(Enter)",16455707359341643e61,glass_,16455707359341643e61,pass,pass-target,2,96,1645570735934,1366,NA
030ad01f9bfb7ac7493ac356817f6804,ID,car,car,1645570736735,"C,A,R,(Enter)",1645570737727164e36,car_,1645570737727164e36,pass,pass-target,2,97,1645570737727,692,NA
030ad01f9bfb7ac7493ac356817f6804,REL,pistol,cannon,1645570738229,"P,I,S,T,O,L,(Enter)",16455707393981647e74,pistol_,16455707393981647e74,pass,pass-target,2,98,1645570739398,869,NA
030ad01f9bfb7ac7493ac356817f6804,NEU,leg,XXXXX,1645570740622,"L,E,G,(Enter)",1645570741921165e36,leg_,1645570741921165e36,pass,pass-target,2,99,1645570741921,999,NA
030ad01f9bfb7ac7493ac356817f6804,UNREL,plane,glass,1645570742482,"P,L,A,N,E,(Enter)",16455707435941644e61,plane_,16455707435941644e61,pass,pass-target,2,100,1645570743594,812,NA
030ad01f9bfb7ac7493ac356817f6804,REL,glass,plate,1645570744305,"G,L,A,S,S,(Enter)",1645570745495165e62,glass_,1645570745495165e62,pass,pass-target,2,101,1645570745495,890,NA
030ad01f9bfb7ac7493ac356817f6804,NEU,coat,XXXXX,1645570746341,"C,O,A,T,(Enter)",16455707487381652e48,coat_,16455707487381652e48,pass,pass-target,2,102,1645570748738,2097,NA
030ad01f9bfb7ac7493ac356817f6804,ID,skirt,skirt,1645570749689,"S,K,I,R,T,(Enter)",16455707508291654e61,skirt_,16455707508291654e61,pass,pass-target,2,103,1645570750829,840,NA
030ad01f9bfb7ac7493ac356817f6804,UNREL,cup,tortoise,1645570751531,"C,U,P,(Enter)",16455707533261646e35,cup_,16455707533261646e35,pass,pass-target,2,104,1645570753326,1495,NA
030ad01f9bfb7ac7493ac356817f6804,ID,bed,bed,1645570753947,"B,E,D,(Enter)",16455707549011638e35,bed_,16455707549011638e35,pass,pass-target,2,105,1645570754901,654,NA
030ad01f9bfb7ac7493ac356817f6804,REL,train,bike,1645570755470,"T,R,A,I,N,(Enter)",16455707566911648e61,train_,16455707566911648e61,pass,pass-target,2,106,1645570756691,921,NA
030ad01f9bfb7ac7493ac356817f6804,NEU,arm,XXXXX,1645570757435,"A,R,M,(Enter)",16455707584641644e35,arm_,16455707584641644e35,pass,pass-target,2,107,1645570758464,729,NA
030ad01f9bfb7ac7493ac356817f6804,UNREL,dagger,sweater,1645570758968,"D,A,G,G,E,R,(Enter)",1645570760188164e75,dagger_,1645570760188164e75,pass,pass-target,2,108,1645570760188,920,NA
030ad01f9bfb7ac7493ac356817f6804,REL,cup,jug,1645570761094,"C,U,P,(Enter)",16455707628631647e35,cup_,16455707628631647e35,pass,pass-target,2,109,1645570762863,1469,NA
030ad01f9bfb7ac7493ac356817f6804,NEU,church,XXXXX,1645570763730,"C,H,U,R,C,H,(Enter)",16455707649141636e74,church_,16455707649141636e74,pass,pass-target,2,110,1645570764914,884,NA
030ad01f9bfb7ac7493ac356817f6804,UNREL,train,arm,1645570768603,"T,R,A,I,N,(Enter)",1645570769761164e62,train_,1645570769761164e62,pass,pass-target,2,112,1645570769761,858,NA
030ad01f9bfb7ac7493ac356817f6804,ID,glass,glass,1645570770617,"G,L,A,S,S,(Enter)",16455707716551655e61,glass_,16455707716551655e61,pass,pass-target,2,113,1645570771655,738,NA
030ad01f9bfb7ac7493ac356817f6804,REL,ear,leg,1645570772417,"E,A,R,(Enter)",16455707735351648e35,ear_,16455707735351648e35,pass,pass-target,2,114,1645570773535,818,NA
030ad01f9bfb7ac7493ac356817f6804,NEU,car,XXXXX,1645570774037,"C,A,R,(Enter)",1645570775083164e36,car_,1645570775083164e36,pass,pass-target,2,115,1645570775083,746,NA
030ad01f9bfb7ac7493ac356817f6804,UNREL,sword,table,1645570775554,"S,W,O,R,D,(Enter)",16455707773231646e61,sword_,16455707773231646e61,pass,pass-target,2,116,1645570777323,1469,NA
030ad01f9bfb7ac7493ac356817f6804,REL,bed,desk,1645570778420,"B,E,D,(Enter)",16455707798821637e35,bed_,16455707798821637e35,pass,pass-target,2,117,1645570779882,1162,NA
030ad01f9bfb7ac7493ac356817f6804,NEU,pistol,XXXXX,1645570780477,"P,I,S,T,O,L,(Enter)",16455707816081644e74,pistol_,16455707816081644e74,pass,pass-target,2,118,1645570781608,831,NA
030ad01f9bfb7ac7493ac356817f6804,ID,deer,deer,1645570782820,"D,E,E,R,(Enter)",16455707838331642e48,deer_,16455707838331642e48,pass,pass-target,2,119,1645570783833,713,NA
030ad01f9bfb7ac7493ac356817f6804,UNREL,swan,skirt,1645570784569,"S,W,A,N,(Enter)",16455707856691654e48,swan_,16455707856691654e48,pass,pass-target,2,120,1645570785669,800,NA
030ad01f9bfb7ac7493ac356817f6804,ID,dagger,dagger,1645570786411,"D,A,G,G,E,R,(Enter)",16455707877761652e74,dagger_,16455707877761652e74,pass,pass-target,2,121,1645570787776,1065,NA
030ad01f9bfb7ac7493ac356817f6804,REL,deer,rabbit,1645570788651,"D,E,E,R,(Enter)",16455707898911645e48,deer_,16455707898911645e48,pass,pass-target,2,122,1645570789891,940,NA
030ad01f9bfb7ac7493ac356817f6804,NEU,table,XXXXX,1645570790751,"T,A,B,L,E,(Enter)",16455707927361638e61,table_,16455707927361638e61,pass,pass-target,2,123,1645570792736,1685,NA
030ad01f9bfb7ac7493ac356817f6804,UNREL,deer,desk,1645570793562,"D,E,E,R,(Enter)",16455707949971643e48,deer_,16455707949971643e48,pass,pass-target,2,124,1645570794997,1135,NA
030ad01f9bfb7ac7493ac356817f6804,REL,dagger,sword,1645570795834,"D,A,G,G,E,R,(Enter)",16455707971431651e74,dagger_,16455707971431651e74,pass,pass-target,2,125,1645570797143,1009,NA
030ad01f9bfb7ac7493ac356817f6804,ID,train,train,1645570801298,"T,R,A,I,N,(Enter)",16455708023471646e61,train_,16455708023471646e61,pass,pass-target,2,127,1645570802347,749,NA
030ad01f9bfb7ac7493ac356817f6804,UNREL,rabbit,church,1645570803107,"R,A,B,B,I,T,(Enter)",1645570804239163e75,rabbit_,1645570804239163e75,pass,pass-target,2,128,1645570804239,832,NA
0999c88c907d48d67a409ebd4a34388c,ID,table,table,1645578810086,"t,a,b,l,e,(Enter)",16455788125541635e61,table_,16455788125541635e61,pass,pass-target,3,1,1645578812554,2168,NA
0999c88c907d48d67a409ebd4a34388c,REL,church,castle,1645578814708,"c,h,u,r,c,h,(Enter)",1645578816752164e75,church_,1645578816752164e75,pass,pass-target,3,2,1645578816752,1744,NA
0999c88c907d48d67a409ebd4a34388c,NEU,sweater,XXXXX,1645578818428,"s,w,e,a,t,e,r,(Enter)",16455788202091642e87,sweater_,16455788202091642e87,pass,pass-target,3,3,1645578820209,1481,NA
0999c88c907d48d67a409ebd4a34388c,UNREL,plate,cannon,1645578821549,"p,l,a,t,e,(Enter)",16455788232961648e61,plate_,16455788232961648e61,pass,pass-target,3,4,1645578823296,1447,NA
0999c88c907d48d67a409ebd4a34388c,REL,castle,church,1645578825220,"c,a,s,t,l,e,(Enter)",16455788273041648e74,castle_,16455788273041648e74,pass,pass-target,3,5,1645578827304,1784,NA
0999c88c907d48d67a409ebd4a34388c,NEU,pistol,XXXXX,1645578828868,"p,i,s,t,o,l,(Enter)",1645578830576165e75,pistol_,1645578830576165e75,pass,pass-target,3,6,1645578830576,1408,NA
0999c88c907d48d67a409ebd4a34388c,ID,wardrobe,wardrobe,1645578832844,"w,a,r,d,r,o,b,e,(Enter)",16455788349911628e100,wardrobe_,16455788349911628e100,pass,pass-target,3,7,1645578834991,1847,NA
0999c88c907d48d67a409ebd4a34388c,UNREL,arm,train,1645578837403,"a,r,m,(Enter)",1645578839064164e36,arm_,1645578839064164e36,pass,pass-target,3,8,1645578839064,1361,NA
0999c88c907d48d67a409ebd4a34388c,ID,cannon,cannon,1645578840050,"c,a,n,n,o,n,(Enter)",16455788420001644e74,cannon_,16455788420001644e74,pass,pass-target,3,9,1645578842000,1650,NA
0999c88c907d48d67a409ebd4a34388c,REL,tortoise,swan,1645578843308,"t,o,r,t,o,i,s,e,(Enter)",16455788451521638e100,tortoise_,16455788451521638e100,pass,pass-target,3,10,1645578845152,1544,NA
0999c88c907d48d67a409ebd4a34388c,NEU,leg,XXXXX,1645578847492,"l,e,g,(Enter)",1645578849455164e36,leg_,1645578849455164e36,pass,pass-target,3,11,1645578849455,1663,NA
0999c88c907d48d67a409ebd4a34388c,UNREL,deer,desk,1645578850194,"d,e,e,r,(Enter)",16455788521591628e48,deer_,16455788521591628e48,pass,pass-target,3,12,1645578852159,1665,NA
0999c88c907d48d67a409ebd4a34388c,REL,skirt,sweater,1645578853522,"s,k,i,r,t,(Enter)",1645578855407164e62,skirt_,1645578855407164e62,pass,pass-target,3,13,1645578855407,1585,NA
0999c88c907d48d67a409ebd4a34388c,NEU,factory,XXXXX,1645578856763,"f,a,c,t,o,r,y,(Enter)",16455788587111645e87,factory_,16455788587111645e87,pass,pass-target,3,14,1645578858711,1648,NA
0999c88c907d48d67a409ebd4a34388c,ID,coat,coat,1645578860724,"c,o,a,t,(Enter)",16455788624801646e48,coat_,16455788624801646e48,pass,pass-target,3,15,1645578862480,1456,NA
0999c88c907d48d67a409ebd4a34388c,UNREL,rabbit,church,1645578863530,"r,a,b,b,i,t,(Enter)",16455788653751638e74,rabbit_,16455788653751638e74,pass,pass-target,3,16,1645578865375,1545,NA
0999c88c907d48d67a409ebd4a34388c,ID,bike,bike,1645578866678,"b,i,k,e,(Enter)",16455788682741642e48,bike_,16455788682741642e48,pass,pass-target,3,17,1645578868274,1296,NA
0999c88c907d48d67a409ebd4a34388c,REL,bed,desk,1645578869148,"b,e,d,(Enter)",16455788707361643e35,bed_,16455788707361643e35,pass,pass-target,3,18,1645578870736,1288,NA
0999c88c907d48d67a409ebd4a34388c,UNREL,train,arm,1645578875820,"t,r,a,i,n,(Enter)",16455788777751636e61,train_,16455788777751636e61,pass,pass-target,3,20,1645578877775,1655,NA
0999c88c907d48d67a409ebd4a34388c,REL,windmill,factory,1645578878882,"w,i,n,d,m,i,l,l,(Enter)",1.6455788807111643e+116,windmill_,1.6455788807111643e+116,pass,pass-target,3,21,1645578880711,1529,NA
0999c88c907d48d67a409ebd4a34388c,NEU,jug,XXXXX,1645578884235,"j,u,g,(Enter)",1645578885887165e36,jug_,1645578885887165e36,pass,pass-target,3,22,1645578885887,1352,NA
0999c88c907d48d67a409ebd4a34388c,ID,plate,plate,1645578886788,"p,l,a,t,e,(Enter)",16455788890151645e61,plate_,16455788890151645e61,pass,pass-target,3,23,1645578889015,1927,NA
0999c88c907d48d67a409ebd4a34388c,UNREL,swan,skirt,1645578890730,"s,w,a,n,(Enter)",1645578892446165e49,swan_,1645578892446165e49,pass,pass-target,3,24,1645578892446,1416,NA
0999c88c907d48d67a409ebd4a34388c,ID,bed,bed,1645578893740,"b,e,d,(Enter)",1645578895423164e36,bed_,1645578895423164e36,pass,pass-target,3,25,1645578895423,1383,NA
0999c88c907d48d67a409ebd4a34388c,REL,plane,car,1645578896106,"p,l,a,n,e,(Enter)",1645578897822165e62,plane_,1645578897822165e62,pass,pass-target,3,26,1645578897822,1416,NA
0999c88c907d48d67a409ebd4a34388c,NEU,vest,XXXXX,1645578899395,"v,e,s,t,(Enter)",1.6455789019021631e+64,vest_,1.6455789019021631e+64,pass,pass-target,3,27,1645578901902,2207,NA
0999c88c907d48d67a409ebd4a34388c,UNREL,plane,glass,1645578902874,"p,l,a,n,e,(Enter)",1645578904854165e62,plane_,1645578904854165e62,pass,pass-target,3,28,1645578904854,1680,NA
0999c88c907d48d67a409ebd4a34388c,REL,leg,ear,1645578906075,"l,e,g,(Enter)",16455789078701645e35,leg_,16455789078701645e35,pass,pass-target,3,29,1645578907870,1495,NA
0999c88c907d48d67a409ebd4a34388c,NEU,desk,XXXXX,1645578908705,"d,e,s,k,(Enter)",16455789104381637e48,desk_,16455789104381637e48,pass,pass-target,3,30,1645578910438,1433,NA
0999c88c907d48d67a409ebd4a34388c,ID,arm,arm,1645578911873,"a,r,m,(Enter)",1645578913310165e36,arm_,1645578913310165e36,pass,pass-target,3,31,1645578913310,1137,NA
0999c88c907d48d67a409ebd4a34388c,UNREL,dagger,sweater,1645578914570,"d,a,g,g,e,r,(Enter)",16455789165271644e74,dagger_,16455789165271644e74,pass,pass-target,3,32,1645578916527,1657,NA
0999c88c907d48d67a409ebd4a34388c,ID,desk,desk,1645578917809,"d,e,s,k,(Enter)",16455789195101642e48,desk_,16455789195101642e48,pass,pass-target,3,33,1645578919510,1401,NA
0999c88c907d48d67a409ebd4a34388c,REL,train,bike,1645578920737,"t,r,a,i,n,(Enter)",16455789223821642e61,train_,16455789223821642e61,pass,pass-target,3,34,1645578922382,1345,NA
0999c88c907d48d67a409ebd4a34388c,NEU,cup,XXXXX,1645578923648,"c,u,p,(Enter)",1645578925790164e36,cup_,1645578925790164e36,pass,pass-target,3,35,1645578925790,1842,NA
0999c88c907d48d67a409ebd4a34388c,UNREL,skirt,swan,1645578926986,"s,k,i,r,t,(Enter)",16455789285421647e61,skirt_,16455789285421647e61,pass,pass-target,3,36,1645578928542,1256,NA
0999c88c907d48d67a409ebd4a34388c,REL,car,plane,1645578929825,"c,a,r,(Enter)",16455789316061646e35,car_,16455789316061646e35,pass,pass-target,3,37,1645578931606,1481,NA
0999c88c907d48d67a409ebd4a34388c,NEU,train,XXXXX,1645578932403,"t,r,a,i,n,(Enter)",1645578933974164e62,train_,1645578933974164e62,pass,pass-target,3,38,1645578933974,1271,NA
0999c88c907d48d67a409ebd4a34388c,ID,skirt,skirt,1645578935377,"s,k,i,r,t,(Enter)",16455789368541647e61,skirt_,16455789368541647e61,pass,pass-target,3,39,1645578936854,1177,NA
0999c88c907d48d67a409ebd4a34388c,UNREL,sweater,dagger,1645578938720,"s,w,e,a,t,e,r,(Enter)",16455789405421653e87,sweater_,16455789405421653e87,pass,pass-target,3,40,1645578940542,1522,NA
0999c88c907d48d67a409ebd4a34388c,ID,glass,glass,1645578941984,"g,l,a,s,s,(Enter)",16455789438611643e61,glass_,16455789438611643e61,pass,pass-target,3,41,1645578943861,1577,NA
0999c88c907d48d67a409ebd4a34388c,REL,desk,bed,1645578944873,"d,e,s,k,(Enter)",16455789472541643e48,desk_,16455789472541643e48,pass,pass-target,3,42,1645578947254,2081,NA
0999c88c907d48d67a409ebd4a34388c,NEU,car,XXXXX,1645578948416,"c,a,r,(Enter)",16455789502221635e35,car_,16455789502221635e35,pass,pass-target,3,43,1645578950222,1506,NA
0999c88c907d48d67a409ebd4a34388c,UNREL,tortoise,cup,1645578951105,"t,o,r,t,o,i,s,e,(Enter)",1645578952958165e101,tortoise_,1645578952958165e101,pass,pass-target,3,44,1645578952958,1553,NA
0999c88c907d48d67a409ebd4a34388c,REL,wardrobe,table,1645578954667,"w,a,r,d,r,o,b,e,(Enter)",1645578956309164e101,wardrobe_,1645578956309164e101,pass,pass-target,3,45,1645578956309,1342,NA
0999c88c907d48d67a409ebd4a34388c,NEU,plane,XXXXX,1645578959649,"p,l,a,n,e,(Enter)",1645578961277164e62,plane_,1645578961277164e62,pass,pass-target,3,46,1645578961277,1328,NA
0999c88c907d48d67a409ebd4a34388c,ID,church,church,1645578962360,"c,h,u,r,c,h,(Enter)",16455789638531641e74,church_,16455789638531641e74,pass,pass-target,3,47,1645578963853,1193,NA
0999c88c907d48d67a409ebd4a34388c,UNREL,vest,ear,1645578965378,"v,e,s,t,(Enter)",1645578967325165e49,vest_,1645578967325165e49,pass,pass-target,3,48,1645578967325,1647,NA
0999c88c907d48d67a409ebd4a34388c,ID,swan,swan,1645578968329,"s,w,a,n,(Enter)",16455789698691644e48,swan_,16455789698691644e48,pass,pass-target,3,49,1645578969869,1240,NA
0999c88c907d48d67a409ebd4a34388c,REL,bike,train,1645578971096,"b,i,k,e,(Enter)",16455789727571638e48,bike_,16455789727571638e48,pass,pass-target,3,50,1645578972757,1361,NA
0999c88c907d48d67a409ebd4a34388c,UNREL,pistol,bed,1645578977234,"p,i,s,t,o,l,(Enter)",1645578978942166e75,pistol_,1645578978942166e75,pass,pass-target,3,52,1645578978942,1408,NA
0999c88c907d48d67a409ebd4a34388c,NEU,church,XXXXX,1645578986114,"c,h,u,r,c,h,(Enter)",16455789876901643e74,church_,16455789876901643e74,pass,pass-target,3,54,1645578987690,1276,NA
0999c88c907d48d67a409ebd4a34388c,ID,ear,ear,1645578989464,"e,a,r,(Enter)",16455789910131643e35,ear_,16455789910131643e35,pass,pass-target,3,55,1645578991013,1249,NA
0999c88c907d48d67a409ebd4a34388c,UNREL,table,sword,1645578991567,"t,a,b,l,e,(Enter)",16455789933401645e61,table_,16455789933401645e61,pass,pass-target,3,56,1645578993340,1473,NA
0999c88c907d48d67a409ebd4a34388c,ID,leg,leg,1645578995319,"l,e,g,(Enter)",1645578997220165e36,leg_,1645578997220165e36,pass,pass-target,3,57,1645578997220,1601,NA
0999c88c907d48d67a409ebd4a34388c,REL,coat,vest,1645578997967,"c,o,a,t,(Enter)",1645578999821165e49,coat_,1645578999821165e49,pass,pass-target,3,58,1645578999821,1554,NA
0999c88c907d48d67a409ebd4a34388c,NEU,arm,XXXXX,1645579000841,"a,r,m,(Enter)",1645579002420165e36,arm_,1645579002420165e36,pass,pass-target,3,59,1645579002420,1279,NA
0999c88c907d48d67a409ebd4a34388c,UNREL,sword,table,1645579003401,"s,w,o,r,d,(Enter)",16455790051241651e61,sword_,16455790051241651e61,pass,pass-target,3,60,1645579005124,1423,NA
0999c88c907d48d67a409ebd4a34388c,REL,sweater,skirt,1645579006528,"s,w,e,a,t,e,r,(Enter)",16455790080441644e87,sweater_,16455790080441644e87,pass,pass-target,3,61,1645579008044,1216,NA
0999c88c907d48d67a409ebd4a34388c,NEU,plate,XXXXX,1645579009400,"p,l,a,t,e,(Enter)",16455790109571661e61,plate_,16455790109571661e61,pass,pass-target,3,62,1645579010957,1257,NA
0999c88c907d48d67a409ebd4a34388c,ID,plane,plane,1645579012383,"p,l,a,n,e,(Enter)",16455790139481653e61,plane_,16455790139481653e61,pass,pass-target,3,63,1645579013948,1265,NA
0999c88c907d48d67a409ebd4a34388c,UNREL,car,leg,1645579015024,"c,a,r,(Enter)",1645579016628165e36,car_,1645579016628165e36,pass,pass-target,3,64,1645579016628,1304,NA
0999c88c907d48d67a409ebd4a34388c,ID,castle,castle,1645579017375,"c,a,s,t,l,e,(Enter)",16455790187561653e74,castle_,16455790187561653e74,pass,pass-target,3,65,1645579018756,1081,NA
0999c88c907d48d67a409ebd4a34388c,REL,nose,arm,1645579020455,"n,o,s,e,(Enter)",16455790220931637e48,nose_,16455790220931637e48,pass,pass-target,3,66,1645579022093,1338,NA
0999c88c907d48d67a409ebd4a34388c,NEU,glass,XXXXX,1645579023127,"g,l,a,s,s,(Enter)",16455790250201646e61,glass_,16455790250201646e61,pass,pass-target,3,67,1645579025020,1593,NA
0999c88c907d48d67a409ebd4a34388c,UNREL,jug,windmill,1645579026441,"j,u,g,(Enter)",16455790280921647e35,jug_,16455790280921647e35,pass,pass-target,3,68,1645579028092,1351,NA
0999c88c907d48d67a409ebd4a34388c,REL,rabbit,deer,1645579028961,"r,a,b,b,i,t,(Enter)",1645579031044164e75,rabbit_,1645579031044164e75,pass,pass-target,3,69,1645579031044,1783,NA
0999c88c907d48d67a409ebd4a34388c,NEU,wardrobe,XXXXX,1645579033111,"w,a,r,d,r,o,b,e,(Enter)",16455790347801643e100,wardrobe_,16455790347801643e100,pass,pass-target,3,70,1645579034780,1369,NA
0999c88c907d48d67a409ebd4a34388c,ID,jug,jug,1645579037544,"j,u,g,(Enter)",16455790390591646e35,jug_,16455790390591646e35,pass,pass-target,3,71,1645579039059,1215,NA
0999c88c907d48d67a409ebd4a34388c,UNREL,bike,wardrobe,1645579039942,"b,i,k,e,(Enter)",16455790414441645e48,bike_,16455790414441645e48,pass,pass-target,3,72,1645579041444,1202,NA
0999c88c907d48d67a409ebd4a34388c,ID,cup,cup,1645579042577,"c,u,p,(Enter)",1645579044132164e36,cup_,1645579044132164e36,pass,pass-target,3,73,1645579044132,1255,NA
0999c88c907d48d67a409ebd4a34388c,REL,factory,windmill,1645579044944,"f,a,c,t,o,r,y,(Enter)",1645579046867164e88,factory_,1645579046867164e88,pass,pass-target,3,74,1645579046867,1623,NA
0999c88c907d48d67a409ebd4a34388c,NEU,bike,XXXXX,1645579048760,"b,i,k,e,(Enter)",16455790502601648e48,bike_,16455790502601648e48,pass,pass-target,3,75,1645579050260,1200,NA
0999c88c907d48d67a409ebd4a34388c,UNREL,nose,factory,1645579051095,"n,o,s,e,(Enter)",16455790528921653e48,nose_,16455790528921653e48,pass,pass-target,3,76,1645579052892,1497,NA
0999c88c907d48d67a409ebd4a34388c,REL,vest,coat,1645579053847,"v,e,s,t,(Enter)",16455790553711652e48,vest_,16455790553711652e48,pass,pass-target,3,77,1645579055371,1224,NA
0999c88c907d48d67a409ebd4a34388c,NEU,nose,XXXXX,1645579056319,"n,o,s,e,(Enter)",1645579057747164e49,nose_,1645579057747164e49,pass,pass-target,3,78,1645579057747,1128,NA
0999c88c907d48d67a409ebd4a34388c,ID,train,train,1645579059030,"t,r,a,i,n,(Enter)",1.6455790606431636e+77,train_,1.6455790606431636e+77,pass,pass-target,3,79,1645579060643,1313,NA
0999c88c907d48d67a409ebd4a34388c,UNREL,windmill,jug,1645579061583,"w,i,n,d,m,i,l,l,(Enter)",16455790631801654e100,windmill_,16455790631801654e100,pass,pass-target,3,80,1645579063180,1297,NA
0999c88c907d48d67a409ebd4a34388c,REL,sword,dagger,1645579070047,"s,w,o,r,d,(Enter)",16455790719471634e61,sword_,16455790719471634e61,pass,pass-target,3,82,1645579071947,1600,NA
0999c88c907d48d67a409ebd4a34388c,NEU,dagger,XXXXX,1645579073430,"d,a,g,g,e,r,(Enter)",16455790753311633e74,dagger_,16455790753311633e74,pass,pass-target,3,83,1645579075331,1601,NA
0999c88c907d48d67a409ebd4a34388c,REL,glass,plate,1645579081271,"g,l,a,s,s,(Enter)",1645579083051165e62,glass_,1645579083051165e62,pass,pass-target,3,85,1645579083051,1480,NA
0999c88c907d48d67a409ebd4a34388c,NEU,tortoise,XXXXX,1645579084128,"t,o,r,t,o,i,s,e,(Enter)",1645579085626164e101,tortoise_,1645579085626164e101,pass,pass-target,3,86,1645579085626,1198,NA
0999c88c907d48d67a409ebd4a34388c,ID,windmill,windmill,1645579088662,"w,i,n,d,m,i,l,l,(Enter)",16455790901621652e100,windmill_,16455790901621652e100,pass,pass-target,3,87,1645579090162,1200,NA
0999c88c907d48d67a409ebd4a34388c,UNREL,castle,coat,1645579092551,"c,a,s,t,l,e,(Enter)",16455790944271647e74,castle_,16455790944271647e74,pass,pass-target,3,88,1645579094427,1576,NA
0999c88c907d48d67a409ebd4a34388c,ID,sweater,sweater,1645579096094,"s,w,e,a,t,e,r,(Enter)",16455790975141653e87,sweater_,16455790975141653e87,pass,pass-target,3,89,1645579097514,1120,NA
0999c88c907d48d67a409ebd4a34388c,REL,deer,rabbit,1645579100055,"d,e,e,r,(Enter)",16455791020661653e48,deer_,16455791020661653e48,pass,pass-target,3,90,1645579102066,1711,NA
0999c88c907d48d67a409ebd4a34388c,NEU,cannon,XXXXX,1645579103029,"c,a,n,n,o,n,(Enter)",16455791047471634e74,cannon_,16455791047471634e74,pass,pass-target,3,91,1645579104747,1418,NA
0999c88c907d48d67a409ebd4a34388c,UNREL,factory,nose,1645579106031,"f,a,c,t,o,r,y,(Enter)",16455791078901636e87,factory_,16455791078901636e87,pass,pass-target,3,92,1645579107890,1559,NA
0999c88c907d48d67a409ebd4a34388c,REL,cannon,pistol,1645579109717,"c,a,n,n,o,n,(Enter)",16455791122901643e74,cannon_,16455791122901643e74,pass,pass-target,3,93,1645579112290,2273,NA
0999c88c907d48d67a409ebd4a34388c,NEU,coat,XXXXX,1645579113630,"c,o,a,t,(Enter)",16455791151551632e48,coat_,16455791151551632e48,pass,pass-target,3,94,1645579115155,1225,NA
0999c88c907d48d67a409ebd4a34388c,ID,nose,nose,1645579116157,"n,o,s,e,(Enter)",1645579117530165e49,nose_,1645579117530165e49,pass,pass-target,3,95,1645579117530,1073,NA
0999c88c907d48d67a409ebd4a34388c,UNREL,cup,tortoise,1645579118590,"c,u,p,(Enter)",16455791202341643e35,cup_,16455791202341643e35,pass,pass-target,3,96,1645579120234,1344,NA
0999c88c907d48d67a409ebd4a34388c,ID,vest,vest,1645579121287,"v,e,s,t,(Enter)",16455791227701647e48,vest_,16455791227701647e48,pass,pass-target,3,97,1645579122770,1183,NA
0999c88c907d48d67a409ebd4a34388c,REL,plate,glass,1645579123686,"p,l,a,t,e,(Enter)",16455791254191643e61,plate_,16455791254191643e61,pass,pass-target,3,98,1645579125419,1433,NA
0999c88c907d48d67a409ebd4a34388c,UNREL,desk,deer,1645579130461,"d,e,s,k,(Enter)",1645579132194165e49,desk_,1645579132194165e49,pass,pass-target,3,100,1645579132194,1433,NA
0999c88c907d48d67a409ebd4a34388c,REL,dagger,sword,1645579133396,"d,a,g,g,e,r,(Enter)",16455791354821645e74,dagger_,16455791354821645e74,pass,pass-target,3,101,1645579135482,1786,NA
0999c88c907d48d67a409ebd4a34388c,NEU,ear,XXXXX,1645579136637,"e,a,r,(Enter)",16455791382091646e35,ear_,16455791382091646e35,pass,pass-target,3,102,1645579138209,1272,NA
0999c88c907d48d67a409ebd4a34388c,ID,tortoise,tortoise,1645579138756,"t,o,r,t,o,i,s,e,(Enter)",16455791404901654e100,tortoise_,16455791404901654e100,pass,pass-target,3,103,1645579140490,1434,NA
0999c88c907d48d67a409ebd4a34388c,UNREL,cannon,plate,1645579142820,"c,a,n,n,o,n,(Enter)",1645579144529164e75,cannon_,1645579144529164e75,pass,pass-target,3,104,1645579144529,1409,NA
0999c88c907d48d67a409ebd4a34388c,ID,dagger,dagger,1645579145639,"d,a,g,g,e,r,(Enter)",16455791473211637e74,dagger_,16455791473211637e74,pass,pass-target,3,105,1645579147321,1382,NA
0999c88c907d48d67a409ebd4a34388c,REL,jug,cup,1645579148474,"j,u,g,(Enter)",1645579150369165e36,jug_,1645579150369165e36,pass,pass-target,3,106,1645579150369,1595,NA
0999c88c907d48d67a409ebd4a34388c,UNREL,coat,castle,1645579154907,"c,o,a,t,(Enter)",16455791568261644e48,coat_,16455791568261644e48,pass,pass-target,3,108,1645579156826,1619,NA
0999c88c907d48d67a409ebd4a34388c,REL,cup,jug,1645579157845,"c,u,p,(Enter)",16455791596491645e35,cup_,16455791596491645e35,pass,pass-target,3,109,1645579159649,1504,NA
0999c88c907d48d67a409ebd4a34388c,NEU,windmill,XXXXX,1645579160451,"w,i,n,d,m,i,l,l,(Enter)",16455791623131638e100,windmill_,16455791623131638e100,pass,pass-target,3,110,1645579162313,1562,NA
0999c88c907d48d67a409ebd4a34388c,ID,car,car,1645579165592,"c,a,r,(Enter)",16455791671861647e35,car_,16455791671861647e35,pass,pass-target,3,111,1645579167186,1294,NA
0999c88c907d48d67a409ebd4a34388c,UNREL,glass,cannon,1645579167918,"g,l,a,s,s,(Enter)",16455791696811653e61,glass_,16455791696811653e61,pass,pass-target,3,112,1645579169681,1463,NA
0999c88c907d48d67a409ebd4a34388c,ID,rabbit,rabbit,1645579170637,"r,a,b,b,i,t,(Enter)",16455791721931644e74,rabbit_,16455791721931644e74,pass,pass-target,3,113,1645579172193,1256,NA
0999c88c907d48d67a409ebd4a34388c,NEU,swan,XXXXX,1645579179613,"s,w,a,n,(Enter)",16455791815211643e48,swan_,16455791815211643e48,pass,pass-target,3,115,1645579181521,1608,NA
0999c88c907d48d67a409ebd4a34388c,UNREL,wardrobe,bike,1645579182517,"w,a,r,d,r,o,b,e,(Enter)",16455791841691644e100,wardrobe_,16455791841691644e100,pass,pass-target,3,116,1645579184169,1352,NA
0999c88c907d48d67a409ebd4a34388c,REL,arm,nose,1645579186621,"a,r,m,(Enter)",16455791882331645e35,arm_,16455791882331645e35,pass,pass-target,3,117,1645579188233,1312,NA
0999c88c907d48d67a409ebd4a34388c,NEU,deer,XXXXX,1645579189123,"d,e,e,r,(Enter)",1645579190696164e49,deer_,1645579190696164e49,pass,pass-target,3,118,1645579190696,1273,NA
0999c88c907d48d67a409ebd4a34388c,ID,sword,sword,1645579191531,"s,w,o,r,d,(Enter)",16455791931611648e61,sword_,16455791931611648e61,pass,pass-target,3,119,1645579193161,1330,NA
0999c88c907d48d67a409ebd4a34388c,UNREL,leg,car,1645579194420,"l,e,g,(Enter)",16455791963761647e35,leg_,16455791963761647e35,pass,pass-target,3,120,1645579196376,1656,NA
0999c88c907d48d67a409ebd4a34388c,ID,factory,factory,1645579197292,"f,a,c,t,o,r,y,(Enter)",16455791989291638e87,factory_,16455791989291638e87,pass,pass-target,3,121,1645579198929,1337,NA
0999c88c907d48d67a409ebd4a34388c,REL,ear,leg,1645579201021,"e,a,r,(Enter)",16455792027161646e35,ear_,16455792027161646e35,pass,pass-target,3,122,1645579202716,1395,NA
0999c88c907d48d67a409ebd4a34388c,NEU,bed,XXXXX,1645579203328,"b,e,d,(Enter)",16455792049121642e35,bed_,16455792049121642e35,pass,pass-target,3,123,1645579204912,1284,NA
0999c88c907d48d67a409ebd4a34388c,UNREL,ear,vest,1645579205539,"e,a,r,(Enter)",1645579207304165e36,ear_,1645579207304165e36,pass,pass-target,3,124,1645579207304,1465,NA
0999c88c907d48d67a409ebd4a34388c,REL,table,wardrobe,1645579207843,"t,a,b,l,e,(Enter)",16455792096661653e61,table_,16455792096661653e61,pass,pass-target,3,125,1645579209666,1523,NA
0999c88c907d48d67a409ebd4a34388c,NEU,sword,XXXXX,1645579210907,"s,w,o,r,d,(Enter)",16455792126801637e61,sword_,16455792126801637e61,pass,pass-target,3,126,1645579212680,1473,NA
0999c88c907d48d67a409ebd4a34388c,ID,deer,deer,1645579213997,"d,e,e,r,(Enter)",16455792155361642e48,deer_,16455792155361642e48,pass,pass-target,3,127,1645579215536,1239,NA
0999c88c907d48d67a409ebd4a34388c,UNREL,bed,pistol,1645579216316,"b,e,d,(Enter)",16455792180321642e35,bed_,16455792180321642e35,pass,pass-target,3,128,1645579218032,1416,NA
09cb2948a89a008e884598ad3485445e,ID,table,table,1645660607173,"t,a,b,l,e,(Enter)",16456606082671637e61,table_,16456606082671637e61,pass,pass-target,4,1,1645660608267,794,NA
09cb2948a89a008e884598ad3485445e,REL,church,castle,1645660609327,"c,h,u,r,c,h,(Enter)",16456606108921643e74,church_,16456606108921643e74,pass,pass-target,4,2,1645660610892,1265,NA
09cb2948a89a008e884598ad3485445e,NEU,sweater,XXXXX,1645660611856,"s,w,e,a,t,e,r,(Enter)",16456606136381645e87,sweater_,16456606136381645e87,pass,pass-target,4,3,1645660613638,1482,NA
09cb2948a89a008e884598ad3485445e,UNREL,plate,cannon,1645660615257,"p,l,a,t,e,(Enter)",1645660616621165e62,plate_,1645660616621165e62,pass,pass-target,4,4,1645660616621,1064,NA
09cb2948a89a008e884598ad3485445e,REL,castle,church,1645660617374,"c,a,s,t,l,e,(Enter)",16456606190071634e74,castle_,16456606190071634e74,pass,pass-target,4,5,1645660619007,1333,NA
09cb2948a89a008e884598ad3485445e,NEU,pistol,XXXXX,1645660620032,"p,i,s,t,o,l,(Enter)",16456606213251643e74,pistol_,16456606213251643e74,pass,pass-target,4,6,1645660621325,993,NA
09cb2948a89a008e884598ad3485445e,ID,wardrobe,wardrobe,1645660622613,"w,a,r,d,r,o,b,e,(Enter)",16456606237011628e100,wardrobe_,16456606237011628e100,pass,pass-target,4,7,1645660623701,788,NA
09cb2948a89a008e884598ad3485445e,UNREL,arm,train,1645660625427,"a,r,m,(Enter)",1645660626693165e36,arm_,1645660626693165e36,pass,pass-target,4,8,1645660626693,966,NA
09cb2948a89a008e884598ad3485445e,ID,cannon,cannon,1645660627263,"c,a,n,n,o,n,(Enter)",16456606283521638e74,cannon_,16456606283521638e74,pass,pass-target,4,9,1645660628352,789,NA
09cb2948a89a008e884598ad3485445e,REL,tortoise,swan,1645660629227,"t,o,r,t,o,i,s,e,(Enter)",1645660630644165e101,tortoise_,1645660630644165e101,pass,pass-target,4,10,1645660630644,1117,NA
09cb2948a89a008e884598ad3485445e,NEU,leg,XXXXX,1645660632293,"l,e,g,(Enter)",1645660633388165e36,leg_,1645660633388165e36,pass,pass-target,4,11,1645660633388,795,NA
09cb2948a89a008e884598ad3485445e,UNREL,deer,desk,1645660634133,"d,e,e,r,(Enter)",16456606355961645e48,deer_,16456606355961645e48,pass,pass-target,4,12,1645660635596,1163,NA
09cb2948a89a008e884598ad3485445e,REL,skirt,sweater,1645660636291,"s,k,i,r,t,(Enter)",16456606376061634e61,skirt_,16456606376061634e61,pass,pass-target,4,13,1645660637606,1015,NA
09cb2948a89a008e884598ad3485445e,UNREL,rabbit,church,1645660646837,"r,a,b,b,i,t,(Enter)",16456606485701652e74,rabbit_,16456606485701652e74,pass,pass-target,4,16,1645660648570,1433,NA
09cb2948a89a008e884598ad3485445e,ID,bike,bike,1645660649884,"b,i,k,e,(Enter)",16456606509571638e48,bike_,16456606509571638e48,pass,pass-target,4,17,1645660650957,773,NA
09cb2948a89a008e884598ad3485445e,REL,bed,desk,1645660651603,"b,e,d,(Enter)",1645660653025165e36,bed_,1645660653025165e36,pass,pass-target,4,18,1645660653025,1122,NA
09cb2948a89a008e884598ad3485445e,NEU,table,XXXXX,1645660653646,"t,a,b,l,e,(Enter)",16456606548831642e61,table_,16456606548831642e61,pass,pass-target,4,19,1645660654883,937,NA
09cb2948a89a008e884598ad3485445e,UNREL,train,arm,1645660655854,"t,r,a,i,n,(Enter)",16456606570931645e61,train_,16456606570931645e61,pass,pass-target,4,20,1645660657093,939,NA
09cb2948a89a008e884598ad3485445e,REL,windmill,factory,1645660657928,"w,i,n,d,m,i,l,l,(Enter)",1645660659645164e101,windmill_,1645660659645164e101,pass,pass-target,4,21,1645660659645,1417,NA
09cb2948a89a008e884598ad3485445e,ID,plate,plate,1645660669574,"p,l,a,t,e,(Enter)",16456606706441652e61,plate_,16456606706441652e61,pass,pass-target,4,23,1645660670644,770,NA
09cb2948a89a008e884598ad3485445e,UNREL,swan,skirt,1645660671412,"s,w,a,n,(Enter)",1645660673181165e49,swan_,1645660673181165e49,pass,pass-target,4,24,1645660673181,1469,NA
09cb2948a89a008e884598ad3485445e,ID,bed,bed,1645660673960,"b,e,d,(Enter)",16456606750151646e35,bed_,16456606750151646e35,pass,pass-target,4,25,1645660675015,755,NA
09cb2948a89a008e884598ad3485445e,REL,plane,car,1645660675541,"p,l,a,n,e,(Enter)",16456606769261645e61,plane_,16456606769261645e61,pass,pass-target,4,26,1645660676926,1085,NA
09cb2948a89a008e884598ad3485445e,NEU,vest,XXXXX,1645660677601,"v,e,s,t,(Enter)",16456606788701637e48,vest_,16456606788701637e48,pass,pass-target,4,27,1645660678870,969,NA
09cb2948a89a008e884598ad3485445e,UNREL,plane,glass,1645660679575,"p,l,a,n,e,(Enter)",1645660680814164e62,plane_,1645660680814164e62,pass,pass-target,4,28,1645660680814,939,NA
09cb2948a89a008e884598ad3485445e,REL,leg,ear,1645660681457,"l,e,g,(Enter)",1645660682827164e36,leg_,1645660682827164e36,pass,pass-target,4,29,1645660682827,1070,NA
09cb2948a89a008e884598ad3485445e,NEU,desk,XXXXX,1645660683553,"d,e,s,k,(Enter)",16456606846621643e48,desk_,16456606846621643e48,pass,pass-target,4,30,1645660684662,809,NA
09cb2948a89a008e884598ad3485445e,ID,arm,arm,1645660686001,"a,r,m,(Enter)",1645660687091164e36,arm_,1645660687091164e36,pass,pass-target,4,31,1645660687091,790,NA
09cb2948a89a008e884598ad3485445e,UNREL,dagger,sweater,1645660687738,"d,a,g,g,e,r,(Enter)",16456606893321651e74,dagger_,16456606893321651e74,pass,pass-target,4,32,1645660689332,1294,NA
09cb2948a89a008e884598ad3485445e,ID,desk,desk,1645660690220,"d,e,s,k,(Enter)",1645660691268164e49,desk_,1645660691268164e49,pass,pass-target,4,33,1645660691268,748,NA
09cb2948a89a008e884598ad3485445e,REL,train,bike,1645660692131,"t,r,a,i,n,(Enter)",16456606934771644e61,train_,16456606934771644e61,pass,pass-target,4,34,1645660693477,1046,NA
09cb2948a89a008e884598ad3485445e,UNREL,skirt,swan,1645660706981,"s,k,i,r,t,(Enter)",16456607081771636e61,skirt_,16456607081771636e61,pass,pass-target,4,36,1645660708177,896,NA
09cb2948a89a008e884598ad3485445e,REL,car,plane,1645660709189,"c,a,r,(Enter)",1645660710436164e36,car_,1645660710436164e36,pass,pass-target,4,37,1645660710436,947,NA
09cb2948a89a008e884598ad3485445e,NEU,train,XXXXX,1645660710920,"t,r,a,i,n,(Enter)",16456607119521637e61,train_,16456607119521637e61,pass,pass-target,4,38,1645660711952,732,NA
09cb2948a89a008e884598ad3485445e,ID,skirt,skirt,1645660712672,"s,k,i,r,t,(Enter)",16456607136431655e61,skirt_,16456607136431655e61,pass,pass-target,4,39,1645660713643,671,NA
09cb2948a89a008e884598ad3485445e,UNREL,sweater,dagger,1645660714482,"s,w,e,a,t,e,r,(Enter)",16456607160611639e87,sweater_,16456607160611639e87,pass,pass-target,4,40,1645660716061,1279,NA
09cb2948a89a008e884598ad3485445e,ID,glass,glass,1645660717304,"g,l,a,s,s,(Enter)",16456607189991645e61,glass_,16456607189991645e61,pass,pass-target,4,41,1645660718999,1395,NA
09cb2948a89a008e884598ad3485445e,REL,desk,bed,1645660719748,"d,e,s,k,(Enter)",16456607211231635e48,desk_,16456607211231635e48,pass,pass-target,4,42,1645660721123,1075,NA
09cb2948a89a008e884598ad3485445e,NEU,car,XXXXX,1645660721883,"c,a,r,(Enter)",16456607231531644e35,car_,16456607231531644e35,pass,pass-target,4,43,1645660723153,970,NA
09cb2948a89a008e884598ad3485445e,UNREL,tortoise,cup,1645660723640,"t,o,r,t,o,i,s,e,(Enter)",1645660724995166e101,tortoise_,1645660724995166e101,pass,pass-target,4,44,1645660724995,1055,NA
09cb2948a89a008e884598ad3485445e,REL,wardrobe,table,1645660726761,"w,a,r,d,r,o,b,e,(Enter)",16456607284601644e100,wardrobe_,16456607284601644e100,pass,pass-target,4,45,1645660728460,1399,NA
09cb2948a89a008e884598ad3485445e,NEU,plane,XXXXX,1645660730164,"p,l,a,n,e,(Enter)",1645660731350164e62,plane_,1645660731350164e62,pass,pass-target,4,46,1645660731350,886,NA
09cb2948a89a008e884598ad3485445e,ID,church,church,1645660732039,"c,h,u,r,c,h,(Enter)",16456607333611644e74,church_,16456607333611644e74,pass,pass-target,4,47,1645660733361,1022,NA
09cb2948a89a008e884598ad3485445e,UNREL,vest,ear,1645660734264,"v,e,s,t,(Enter)",16456607354371643e48,vest_,16456607354371643e48,pass,pass-target,4,48,1645660735437,873,NA
09cb2948a89a008e884598ad3485445e,ID,swan,swan,1645660736182,"s,w,a,n,(Enter)",16456607376211648e48,swan_,16456607376211648e48,pass,pass-target,4,49,1645660737621,1139,NA
09cb2948a89a008e884598ad3485445e,REL,bike,train,1645660738397,"b,i,k,e,(Enter)",16456607396631653e48,bike_,16456607396631653e48,pass,pass-target,4,50,1645660739663,966,NA
09cb2948a89a008e884598ad3485445e,NEU,castle,XXXXX,1645660740306,"c,a,s,t,l,e,(Enter)",16456607420911645e74,castle_,16456607420911645e74,pass,pass-target,4,51,1645660742091,1485,NA
09cb2948a89a008e884598ad3485445e,UNREL,pistol,bed,1645660743367,"p,i,s,t,o,l,(Enter)",16456607452611643e74,pistol_,16456607452611643e74,pass,pass-target,4,52,1645660745261,1594,NA
09cb2948a89a008e884598ad3485445e,REL,swan,tortoise,1645660746438,"s,w,a,n,(Enter)",16456607476621642e48,swan_,16456607476621642e48,pass,pass-target,4,53,1645660747662,924,NA
09cb2948a89a008e884598ad3485445e,NEU,church,XXXXX,1645660748393,"c,h,u,r,c,h,(Enter)",16456607494961643e74,church_,16456607494961643e74,pass,pass-target,4,54,1645660749496,803,NA
09cb2948a89a008e884598ad3485445e,ID,ear,ear,1645660750422,"e,a,r,(Enter)",16456607520601648e35,ear_,16456607520601648e35,pass,pass-target,4,55,1645660752060,1338,NA
09cb2948a89a008e884598ad3485445e,ID,leg,leg,1645660757158,"l,e,g,(Enter)",1645660758158164e36,leg_,1645660758158164e36,pass,pass-target,4,57,1645660758158,700,NA
09cb2948a89a008e884598ad3485445e,REL,coat,vest,1645660758713,"c,o,a,t,(Enter)",16456607601171636e48,coat_,16456607601171636e48,pass,pass-target,4,58,1645660760117,1104,NA
09cb2948a89a008e884598ad3485445e,NEU,arm,XXXXX,1645660760841,"a,r,m,(Enter)",1645660761908165e36,arm_,1645660761908165e36,pass,pass-target,4,59,1645660761908,767,NA
09cb2948a89a008e884598ad3485445e,UNREL,sword,table,1645660762455,"s,w,o,r,d,(Enter)",1645660764731165e62,sword_,1645660764731165e62,pass,pass-target,4,60,1645660764731,1976,NA
09cb2948a89a008e884598ad3485445e,NEU,plate,XXXXX,1645660769627,"p,l,a,t,e,(Enter)",16456607710811653e61,plate_,16456607710811653e61,pass,pass-target,4,62,1645660771081,1154,NA
09cb2948a89a008e884598ad3485445e,ID,plane,plane,1645660771860,"p,l,a,n,e,(Enter)",16456607730501647e61,plane_,16456607730501647e61,pass,pass-target,4,63,1645660773050,890,NA
09cb2948a89a008e884598ad3485445e,UNREL,car,leg,1645660773901,"c,a,r,(Enter)",16456607751641648e35,car_,16456607751641648e35,pass,pass-target,4,64,1645660775164,963,NA
09cb2948a89a008e884598ad3485445e,ID,castle,castle,1645660775603,"c,a,s,t,l,e,(Enter)",16456607766171647e74,castle_,16456607766171647e74,pass,pass-target,4,65,1645660776617,714,NA
09cb2948a89a008e884598ad3485445e,REL,nose,arm,1645660777708,"n,o,s,e,(Enter)",16456607790191642e48,nose_,16456607790191642e48,pass,pass-target,4,66,1645660779019,1011,NA
09cb2948a89a008e884598ad3485445e,NEU,glass,XXXXX,1645660779669,"g,l,a,s,s,(Enter)",16456607812601652e61,glass_,16456607812601652e61,pass,pass-target,4,67,1645660781260,1291,NA
09cb2948a89a008e884598ad3485445e,UNREL,jug,windmill,1645660781994,"j,u,g,(Enter)",16456607841051644e35,jug_,16456607841051644e35,pass,pass-target,4,68,1645660784105,1811,NA
09cb2948a89a008e884598ad3485445e,REL,rabbit,deer,1645660784861,"r,a,b,b,i,t,(Enter)",16456607861461652e74,rabbit_,16456607861461652e74,pass,pass-target,4,69,1645660786146,985,NA
09cb2948a89a008e884598ad3485445e,NEU,wardrobe,XXXXX,1645660787215,"w,a,r,d,r,o,b,e,(Enter)",16456607889331657e100,wardrobe_,16456607889331657e100,pass,pass-target,4,70,1645660788933,1418,NA
09cb2948a89a008e884598ad3485445e,ID,jug,jug,1645660791123,"j,u,g,(Enter)",1645660792285165e36,jug_,1645660792285165e36,pass,pass-target,4,71,1645660792285,862,NA
09cb2948a89a008e884598ad3485445e,UNREL,bike,wardrobe,1645660792957,"b,k,e,(Enter)",1645660794187164e36,bke_,1645660794187164e36,pass,pass-target,4,72,1645660794187,930,NA
09cb2948a89a008e884598ad3485445e,ID,cup,cup,1645660794900,"c,u,p,(Enter)",16456607958651642e35,cup_,16456607958651642e35,pass,pass-target,4,73,1645660795865,665,NA
09cb2948a89a008e884598ad3485445e,REL,factory,windmill,1645660796568,"f,a,c,t,o,r,y,(Enter)",16456607981411657e87,factory_,16456607981411657e87,pass,pass-target,4,74,1645660798141,1273,NA
09cb2948a89a008e884598ad3485445e,NEU,bike,XXXXX,1645660799300,"b,i,k,e,(Enter)",1645660800375165e49,bike_,1645660800375165e49,pass,pass-target,4,75,1645660800375,775,NA
09cb2948a89a008e884598ad3485445e,UNREL,nose,factory,1645660801013,"n,o,s,e,(Enter)",16456608021971648e48,nose_,16456608021971648e48,pass,pass-target,4,76,1645660802197,884,NA
09cb2948a89a008e884598ad3485445e,REL,vest,coat,1645660802843,"v,e,s,t,(Enter)",16456608040851645e48,vest_,16456608040851645e48,pass,pass-target,4,77,1645660804085,942,NA
09cb2948a89a008e884598ad3485445e,NEU,nose,XXXXX,1645660804761,"n,o,s,e,(Enter)",16456608060601647e48,nose_,16456608060601647e48,pass,pass-target,4,78,1645660806060,999,NA
09cb2948a89a008e884598ad3485445e,ID,train,train,1645660806640,"t,r,a,i,n,(Enter)",1645660809695165e62,train_,1645660809695165e62,pass,pass-target,4,79,1645660809695,2755,NA
09cb2948a89a008e884598ad3485445e,ID,pistol,pistol,1645660812261,"p,i,s,t,o,l,(Enter)",16456608142461647e74,pistol_,16456608142461647e74,pass,pass-target,4,81,1645660814246,1685,NA
09cb2948a89a008e884598ad3485445e,NEU,dagger,XXXXX,1645660817252,"d,a,g,g,e,r,(Enter)",16456608187001658e74,dagger_,16456608187001658e74,pass,pass-target,4,83,1645660818700,1148,NA
09cb2948a89a008e884598ad3485445e,UNREL,church,rabbit,1645660819601,"c,h,u,r,c,h,(Enter)",1645660822330165e75,church_,1645660822330165e75,pass,pass-target,4,84,1645660822330,2429,NA
09cb2948a89a008e884598ad3485445e,NEU,tortoise,XXXXX,1645660826068,"t,o,r,t,o,i,s,e,(Enter)",16456608285071655e100,tortoise_,16456608285071655e100,pass,pass-target,4,86,1645660828507,2139,NA
09cb2948a89a008e884598ad3485445e,ID,windmill,windmill,1645660829788,"w,i,n,d,m,i,l,l,(Enter)",16456608310031643e100,windmill_,16456608310031643e100,pass,pass-target,4,87,1645660831003,915,NA
09cb2948a89a008e884598ad3485445e,UNREL,castle,coat,1645660832332,"c,a,t,l,e,(Enter)",16456608345621646e61,catle_,16456608345621646e61,pass,pass-target,4,88,1645660834562,1930,NA
09cb2948a89a008e884598ad3485445e,ID,sweater,sweater,1645660836713,"s,w,e,a,t,e,r,(Enter)",16456608378931654e87,sweater_,16456608378931654e87,pass,pass-target,4,89,1645660837893,880,NA
09cb2948a89a008e884598ad3485445e,REL,deer,rabbit,1645660838984,"d,e,e,r,(Enter)",16456608410071642e48,deer_,16456608410071642e48,pass,pass-target,4,90,1645660841007,1723,NA
09cb2948a89a008e884598ad3485445e,REL,cannon,pistol,1645660851387,"c,a,n,n,o,n,(Enter)",16456608538661645e74,cannon_,16456608538661645e74,pass,pass-target,4,93,1645660853866,2179,NA
09cb2948a89a008e884598ad3485445e,NEU,coat,XXXXX,1645660854719,"c,o,a,t,(Enter)",16456608558311645e48,coat_,16456608558311645e48,pass,pass-target,4,94,1645660855831,812,NA
09cb2948a89a008e884598ad3485445e,ID,nose,nose,1645660856449,"n,o,s,e,(Enter)",16456608574441648e48,nose_,16456608574441648e48,pass,pass-target,4,95,1645660857444,695,NA
09cb2948a89a008e884598ad3485445e,UNREL,cup,tortoise,1645660858147,"c,u,p,(Enter)",16456608597271642e35,cup_,16456608597271642e35,pass,pass-target,4,96,1645660859727,1280,NA
09cb2948a89a008e884598ad3485445e,ID,vest,vest,1645660860527,"v,e,s,t,(Enter)",16456608617051644e48,vest_,16456608617051644e48,pass,pass-target,4,97,1645660861705,878,NA
09cb2948a89a008e884598ad3485445e,REL,plate,glass,1645660864436,"p,l,a,t,e,(Enter)",16456608658291637e61,plate_,16456608658291637e61,pass,pass-target,4,98,1645660865829,1093,NA
09cb2948a89a008e884598ad3485445e,NEU,rabbit,XXXXX,1645660866748,"r,a,b,b,i,t,(Enter)",1645660867974165e75,rabbit_,1645660867974165e75,pass,pass-target,4,99,1645660867974,926,NA
09cb2948a89a008e884598ad3485445e,UNREL,desk,deer,1645660868999,"d,e,s,k,(Enter)",16456608714071644e48,desk_,16456608714071644e48,pass,pass-target,4,100,1645660871407,2108,NA
09cb2948a89a008e884598ad3485445e,REL,dagger,sword,1645660872159,"d,a,g,g,e,r,(Enter)",16456608737081648e74,dagger_,16456608737081648e74,pass,pass-target,4,101,1645660873708,1249,NA
09cb2948a89a008e884598ad3485445e,ID,tortoise,tortoise,1645660877290,"t,o,r,t,o,i,s,e,(Enter)",16456608783501633e100,tortoise_,16456608783501633e100,pass,pass-target,4,103,1645660878350,760,NA
09cb2948a89a008e884598ad3485445e,UNREL,cannon,plate,1645660879659,"c,a,n,n,o,n,(Enter)",1645660880975165e75,cannon_,1645660880975165e75,pass,pass-target,4,104,1645660880975,1016,NA
09cb2948a89a008e884598ad3485445e,ID,dagger,dagger,1645660881945,"d,a,g,g,e,r,(Enter)",16456608830451642e74,dagger_,16456608830451642e74,pass,pass-target,4,105,1645660883045,800,NA
09cb2948a89a008e884598ad3485445e,UNREL,coat,castle,1645660889608,"c,o,a,t,e,(Enter)",16456608909231634e61,coate_,16456608909231634e61,pass,pass-target,4,108,1645660890923,1015,NA
09cb2948a89a008e884598ad3485445e,NEU,windmill,XXXXX,1645660897128,"w,i,n,d,m,i,l,l,(Enter)",16456608995531636e100,windmill_,16456608995531636e100,pass,pass-target,4,110,1645660899553,2125,NA
09cb2948a89a008e884598ad3485445e,ID,car,car,1645660901100,"c,a,r,(Enter)",16456609023331644e35,car_,16456609023331644e35,pass,pass-target,4,111,1645660902333,933,NA
09cb2948a89a008e884598ad3485445e,UNREL,glass,cannon,1645660902933,"g,l,a,s,s,(Enter)",16456609059541632e61,glass_,16456609059541632e61,pass,pass-target,4,112,1645660905954,2721,NA
09cb2948a89a008e884598ad3485445e,ID,rabbit,rabbit,1645660906793,"r,a,b,b,i,t,(Enter)",16456609110751649e74,rabbit_,16456609110751649e74,pass,pass-target,4,113,1645660911075,3982,NA
09cb2948a89a008e884598ad3485445e,NEU,swan,XXXXX,1645660917271,"s,w,a,n,(Enter)",16456609186841646e48,swan_,16456609186841646e48,pass,pass-target,4,115,1645660918684,1113,NA
09cb2948a89a008e884598ad3485445e,UNREL,wardrobe,bike,1645660919380,"w,a,r,d,r,o,b,e,(Enter)",16456609207931648e100,wardrobe_,16456609207931648e100,pass,pass-target,4,116,1645660920793,1113,NA
09cb2948a89a008e884598ad3485445e,REL,arm,nose,1645660922487,"a,r,m,(Enter)",16456609268861655e35,arm_,16456609268861655e35,pass,pass-target,4,117,1645660926886,4099,NA
09cb2948a89a008e884598ad3485445e,NEU,deer,XXXXX,1645660927453,"d,e,e,r,(Enter)",1645660928648164e49,deer_,1645660928648164e49,pass,pass-target,4,118,1645660928648,895,NA
09cb2948a89a008e884598ad3485445e,ID,sword,sword,1645660929373,"s,w,o,r,d,(Enter)",16456609305771642e61,sword_,16456609305771642e61,pass,pass-target,4,119,1645660930577,904,NA
09cb2948a89a008e884598ad3485445e,UNREL,leg,car,1645660931719,"l,e,g,(Enter)",1645660939361164e36,leg_,1645660939361164e36,pass,pass-target,4,120,1645660939361,7342,NA
09cb2948a89a008e884598ad3485445e,ID,factory,factory,1645660939957,"f,a,c,t,r,o,y,(Enter)",16456609415131652e87,factroy_,16456609415131652e87,pass,pass-target,4,121,1645660941513,1256,NA
09cb2948a89a008e884598ad3485445e,REL,ear,leg,1645660942806,"e,a,r,(Enter)",16456609441341645e35,ear_,16456609441341645e35,pass,pass-target,4,122,1645660944134,1028,NA
09cb2948a89a008e884598ad3485445e,NEU,bed,XXXXX,1645660944708,"b,e,d,(Enter)",1645660946298164e36,bed_,1645660946298164e36,pass,pass-target,4,123,1645660946298,1290,NA
09cb2948a89a008e884598ad3485445e,UNREL,ear,vest,1645660946965,"e,a,r,(Enter)",1645660949103165e36,ear_,1645660949103165e36,pass,pass-target,4,124,1645660949103,1838,NA
09cb2948a89a008e884598ad3485445e,NEU,sword,XXXXX,1645660955064,"s,w,o,r,d,(Enter)",16456609590831645e61,sword_,16456609590831645e61,pass,pass-target,4,126,1645660959083,3719,NA
09cb2948a89a008e884598ad3485445e,ID,deer,deer,1645660960191,"d,e,e,r,(Enter)",16456609628161638e48,deer_,16456609628161638e48,pass,pass-target,4,127,1645660962816,2325,NA
09cb2948a89a008e884598ad3485445e,UNREL,bed,pistol,1645660963491,"b,e,d,(Enter)",16456609647661646e35,bed_,16456609647661646e35,pass,pass-target,4,128,1645660964766,975,NA
1118e7ed1708eaf9d94a644717b154ad,ID,table,table,1645578763222,"t,a,b,l,e,(Enter)",1645578764709164e62,table_,1645578764709164e62,pass,pass-target,5,1,1645578764709,1187,NA
1118e7ed1708eaf9d94a644717b154ad,REL,church,castle,1645578765799,"c,h,u,r,c,h,(Enter)",16455787677491642e74,church_,16455787677491642e74,pass,pass-target,5,2,1645578767749,1650,NA
1118e7ed1708eaf9d94a644717b154ad,NEU,sweater,XXXXX,1645578770037,"s,w,e,a,t,e,r,(Enter)",1645578771488166e88,sweater_,1645578771488166e88,pass,pass-target,5,3,1645578771488,1151,NA
1118e7ed1708eaf9d94a644717b154ad,UNREL,plate,cannon,1645578773311,"p,l,a,t,e,(Enter)",16455787759751638e61,plate_,16455787759751638e61,pass,pass-target,5,4,1645578775975,2364,NA
1118e7ed1708eaf9d94a644717b154ad,REL,castle,church,1645578776644,"c,a,s,t,l,e,(Enter)",16455787783681637e74,castle_,16455787783681637e74,pass,pass-target,5,5,1645578778368,1424,NA
1118e7ed1708eaf9d94a644717b154ad,NEU,pistol,XXXXX,1645578779443,"p,i,s,t,o,l,(Enter)",16455787812591633e74,pistol_,16455787812591633e74,pass,pass-target,5,6,1645578781259,1516,NA
1118e7ed1708eaf9d94a644717b154ad,UNREL,arm,train,1645578799467,"a,r,m,(Enter)",1645578801036165e36,arm_,1645578801036165e36,pass,pass-target,5,8,1645578801036,1269,NA
1118e7ed1708eaf9d94a644717b154ad,ID,cannon,cannon,1645578801659,"c,a,n,n,o,n,(Enter)",16455788033021634e74,cannon_,16455788033021634e74,pass,pass-target,5,9,1645578803302,1343,NA
1118e7ed1708eaf9d94a644717b154ad,REL,tortoise,swan,1645578804426,"t,o,r,t,o,i,s,e,(Enter)",16455788061651643e100,tortoise_,16455788061651643e100,pass,pass-target,5,10,1645578806165,1439,NA
1118e7ed1708eaf9d94a644717b154ad,NEU,leg,XXXXX,1645578807532,"l,e,g,(Enter)",1645578809003165e36,leg_,1645578809003165e36,pass,pass-target,5,11,1645578809003,1171,NA
1118e7ed1708eaf9d94a644717b154ad,UNREL,deer,desk,1645578809356,"d,e,e,r,(Enter)",1645578810674165e49,deer_,1645578810674165e49,pass,pass-target,5,12,1645578810674,1018,NA
1118e7ed1708eaf9d94a644717b154ad,REL,skirt,sweater,1645578811372,"s,i,r,t,(Enter)",16455788128461648e48,sirt_,16455788128461648e48,pass,pass-target,5,13,1645578812846,1174,NA
1118e7ed1708eaf9d94a644717b154ad,ID,coat,coat,1645578820639,"c,o,a,t,(Enter)",1645578822467164e49,coat_,1645578822467164e49,pass,pass-target,5,15,1645578822467,1528,NA
1118e7ed1708eaf9d94a644717b154ad,UNREL,rabbit,church,1645578823603,"r,a,b,b,i,t,(Enter)",16455788252731657e74,rabbit_,16455788252731657e74,pass,pass-target,5,16,1645578825273,1370,NA
1118e7ed1708eaf9d94a644717b154ad,ID,bike,bike,1645578826223,"b,i,k,e,(Enter)",1645578827518165e49,bike_,1645578827518165e49,pass,pass-target,5,17,1645578827518,995,NA
1118e7ed1708eaf9d94a644717b154ad,REL,bed,desk,1645578828271,"b,e,d,(Enter)",16455788302161645e35,bed_,16455788302161645e35,pass,pass-target,5,18,1645578830216,1645,NA
1118e7ed1708eaf9d94a644717b154ad,NEU,table,XXXXX,1645578830662,"t,a,b,l,e,(Enter)",16455788319831647e61,table_,16455788319831647e61,pass,pass-target,5,19,1645578831983,1021,NA
1118e7ed1708eaf9d94a644717b154ad,UNREL,train,arm,1645578832640,"t,r,a,i,n,(Enter)",1645578834130164e62,train_,1645578834130164e62,pass,pass-target,5,20,1645578834130,1190,NA
1118e7ed1708eaf9d94a644717b154ad,REL,windmill,factory,1645578834821,"w,i,n,d,m,i,l,l,(Enter)",16455788363901647e100,windmill_,16455788363901647e100,pass,pass-target,5,21,1645578836390,1269,NA
1118e7ed1708eaf9d94a644717b154ad,NEU,jug,XXXXX,1645578838506,"j,u,g,(Enter)",16455788408211645e35,jug_,16455788408211645e35,pass,pass-target,5,22,1645578840821,2015,NA
1118e7ed1708eaf9d94a644717b154ad,ID,plate,plate,1645578841358,"p,l,a,t,e,(Enter)",16455788423921645e61,plate_,16455788423921645e61,pass,pass-target,5,23,1645578842392,734,NA
1118e7ed1708eaf9d94a644717b154ad,ID,bed,bed,1645578847980,"b,e,d,(Enter)",16455788493741645e35,bed_,16455788493741645e35,pass,pass-target,5,25,1645578849374,1094,NA
1118e7ed1708eaf9d94a644717b154ad,REL,plane,car,1645578849854,"p,l,a,n,e,(Enter)",16455788511311646e61,plane_,16455788511311646e61,pass,pass-target,5,26,1645578851131,977,NA
1118e7ed1708eaf9d94a644717b154ad,NEU,vest,XXXXX,1645578851893,"v,e,s,t,(Enter)",16455788536961638e48,vest_,16455788536961638e48,pass,pass-target,5,27,1645578853696,1503,NA
1118e7ed1708eaf9d94a644717b154ad,UNREL,plane,glass,1645578854163,"p,l,a,n,e,(Enter)",16455788557241653e61,plane_,16455788557241653e61,pass,pass-target,5,28,1645578855724,1261,NA
1118e7ed1708eaf9d94a644717b154ad,REL,leg,ear,1645578857344,"l,e,g,(Enter)",1645578858849164e36,leg_,1645578858849164e36,pass,pass-target,5,29,1645578858849,1205,NA
1118e7ed1708eaf9d94a644717b154ad,NEU,desk,XXXXX,1645578859224,"d,e,s,k,(Enter)",1645578860581165e49,desk_,1645578860581165e49,pass,pass-target,5,30,1645578860581,1057,NA
1118e7ed1708eaf9d94a644717b154ad,ID,arm,arm,1645578861384,"a,r,m,(Enter)",16455788625211658e35,arm_,16455788625211658e35,pass,pass-target,5,31,1645578862521,837,NA
1118e7ed1708eaf9d94a644717b154ad,UNREL,dagger,sweater,1645578863381,"d,a,g,g,e,r,(Enter)",1645578865149164e75,dagger_,1645578865149164e75,pass,pass-target,5,32,1645578865149,1468,NA
1118e7ed1708eaf9d94a644717b154ad,REL,car,plane,1645578881964,"c,a,r,(Enter)",1645578883509164e36,car_,1645578883509164e36,pass,pass-target,5,37,1645578883509,1245,NA
1118e7ed1708eaf9d94a644717b154ad,NEU,train,XXXXX,1645578884004,"t,r,a,i,n,(Enter)",16455788853241649e61,train_,16455788853241649e61,pass,pass-target,5,38,1645578885324,1020,NA
1118e7ed1708eaf9d94a644717b154ad,ID,skirt,skirt,1645578886219,"s,k,i,r,t,(Enter)",16455788872591646e61,skirt_,16455788872591646e61,pass,pass-target,5,39,1645578887259,740,NA
1118e7ed1708eaf9d94a644717b154ad,ID,glass,glass,1645578892519,"g,a,l,s,s,(Enter)",16455788937381647e61,galss_,16455788937381647e61,pass,pass-target,5,41,1645578893738,919,NA
1118e7ed1708eaf9d94a644717b154ad,NEU,car,XXXXX,1645578899647,"c,a,r,(Enter)",16455789008491646e35,car_,16455789008491646e35,pass,pass-target,5,43,1645578900849,902,NA
1118e7ed1708eaf9d94a644717b154ad,NEU,plane,XXXXX,1645578910517,"p,l,a,n,e,(Enter)",16455789116691646e61,plane_,16455789116691646e61,pass,pass-target,5,46,1645578911669,852,NA
1118e7ed1708eaf9d94a644717b154ad,ID,swan,swan,1645578921804,"s,w,a,n,(Enter)",16455789228361642e48,swan_,16455789228361642e48,pass,pass-target,5,49,1645578922836,732,NA
1118e7ed1708eaf9d94a644717b154ad,NEU,castle,XXXXX,1645578927140,"c,a,s,t,l,e,(Enter)",1645578928810165e75,castle_,1645578928810165e75,pass,pass-target,5,51,1645578928810,1370,NA
1118e7ed1708eaf9d94a644717b154ad,REL,swan,tortoise,1645578937732,"s,w,a,n,(Enter)",1645578939517165e49,swan_,1645578939517165e49,pass,pass-target,5,53,1645578939517,1485,NA
1118e7ed1708eaf9d94a644717b154ad,ID,ear,ear,1645578943759,"e,a,r,(Enter)",16455789448931655e35,ear_,16455789448931655e35,pass,pass-target,5,55,1645578944893,834,NA
1118e7ed1708eaf9d94a644717b154ad,ID,leg,leg,1645578955475,"l,e,g,(Enter)",16455789566601643e35,leg_,16455789566601643e35,pass,pass-target,5,57,1645578956660,885,NA
1118e7ed1708eaf9d94a644717b154ad,REL,coat,vest,1645578957087,"c,o,a,t,(Enter)",16455789611691646e48,coat_,16455789611691646e48,pass,pass-target,5,58,1645578961169,3782,NA
1118e7ed1708eaf9d94a644717b154ad,NEU,arm,XXXXX,1645578962100,"a,r,m,(Enter)",1645578963501164e36,arm_,1645578963501164e36,pass,pass-target,5,59,1645578963501,1101,NA
1118e7ed1708eaf9d94a644717b154ad,ID,plane,plane,1645578985911,"p,l,a,n,e,(Enter)",16455789871281644e61,plane_,16455789871281644e61,pass,pass-target,5,63,1645578987128,917,NA
1118e7ed1708eaf9d94a644717b154ad,UNREL,car,leg,1645578987802,"c,a,r,(Enter)",1645578989092164e36,car_,1645578989092164e36,pass,pass-target,5,64,1645578989092,990,NA
1118e7ed1708eaf9d94a644717b154ad,ID,castle,castle,1645578989503,"c,a,s,t,l,e,(Enter)",16455789905221654e74,castle_,16455789905221654e74,pass,pass-target,5,65,1645578990522,719,NA
1118e7ed1708eaf9d94a644717b154ad,REL,nose,arm,1645578991825,"n,o,s,e,(Enter)",1645578993393165e49,nose_,1645578993393165e49,pass,pass-target,5,66,1645578993393,1268,NA
1118e7ed1708eaf9d94a644717b154ad,NEU,wardrobe,XXXXX,1645579043142,"w,a,r,d,r,o,b,e,(Enter)",16455790443981647e100,wardrobe_,16455790443981647e100,pass,pass-target,5,70,1645579044398,956,NA
1118e7ed1708eaf9d94a644717b154ad,ID,cup,cup,1645579052624,"c,u,p,(Enter)",16455790542421644e35,cup_,16455790542421644e35,pass,pass-target,5,73,1645579054242,1318,NA
1118e7ed1708eaf9d94a644717b154ad,NEU,bike,XXXXX,1645579060012,"b,i,e,(Enter)",1645579061626163e36,bie_,1645579061626163e36,pass,pass-target,5,75,1645579061626,1314,NA
1118e7ed1708eaf9d94a644717b154ad,REL,vest,coat,1645579067369,"v,e,s,t,(Enter)",1645579068933165e49,vest_,1645579068933165e49,pass,pass-target,5,77,1645579068933,1264,NA
1118e7ed1708eaf9d94a644717b154ad,NEU,nose,XXXXX,1645579069418,"n,o,s,e,(Enter)",1645579070830165e49,nose_,1645579070830165e49,pass,pass-target,5,78,1645579070830,1112,NA
1118e7ed1708eaf9d94a644717b154ad,UNREL,windmill,jug,1645579077928,"w,i,n,d,m,i,l,l,(Enter)",1645579079455165e101,windmill_,1645579079455165e101,pass,pass-target,5,80,1645579079455,1227,NA
1118e7ed1708eaf9d94a644717b154ad,ID,pistol,pistol,1645579081319,"p,i,s,t,o,l,(Enter)",16455790827511636e74,pistol_,16455790827511636e74,pass,pass-target,5,81,1645579082751,1132,NA
1118e7ed1708eaf9d94a644717b154ad,NEU,dagger,XXXXX,1645579092380,"d,a,g,g,e,r,(Enter)",16455790944141653e74,dagger_,16455790944141653e74,pass,pass-target,5,83,1645579094414,1734,NA
1118e7ed1708eaf9d94a644717b154ad,UNREL,church,rabbit,1645579095352,"c,h,u,r,c,h,(Enter)",1645579096877165e75,church_,1645579096877165e75,pass,pass-target,5,84,1645579096877,1225,NA
1118e7ed1708eaf9d94a644717b154ad,ID,windmill,windmill,1645579113026,"w,i,n,d,m,i,l,l,(Enter)",16455791141561653e100,windmill_,16455791141561653e100,pass,pass-target,5,87,1645579114156,830,NA
1118e7ed1708eaf9d94a644717b154ad,UNREL,castle,coat,1645579116031,"c,a,s,t,l,e,(Enter)",1645579117648164e75,castle_,1645579117648164e75,pass,pass-target,5,88,1645579117648,1317,NA
1118e7ed1708eaf9d94a644717b154ad,ID,sweater,sweater,1645579118857,"s,w,e,a,t,e,r,(Enter)",16455791199161641e87,sweater_,16455791199161641e87,pass,pass-target,5,89,1645579119916,759,NA
1118e7ed1708eaf9d94a644717b154ad,REL,deer,rabbit,1645579121790,"d,e,e,r,(Enter)",16455791235301648e48,deer_,16455791235301648e48,pass,pass-target,5,90,1645579123530,1440,NA
1118e7ed1708eaf9d94a644717b154ad,NEU,cannon,XXXXX,1645579124556,"c,a,n,n,o,n,(Enter)",16455791271791632e74,cannon_,16455791271791632e74,pass,pass-target,5,91,1645579127179,2323,NA
1118e7ed1708eaf9d94a644717b154ad,REL,cannon,pistol,1645579133252,"c,a,n,n,o,n,(Enter)",16455791350951652e74,cannon_,16455791350951652e74,pass,pass-target,5,93,1645579135095,1543,NA
1118e7ed1708eaf9d94a644717b154ad,NEU,coat,XXXXX,1645579136053,"c,o,a,t,(Enter)",1645579137912164e49,coat_,1645579137912164e49,pass,pass-target,5,94,1645579137912,1559,NA
1118e7ed1708eaf9d94a644717b154ad,ID,nose,nose,1645579138779,"n,o,s,e,(Enter)",16455791402301644e48,nose_,16455791402301644e48,pass,pass-target,5,95,1645579140230,1151,NA
1118e7ed1708eaf9d94a644717b154ad,UNREL,cup,tortoise,1645579140810,"c,u,p,(Enter)",16455791422981647e35,cup_,16455791422981647e35,pass,pass-target,5,96,1645579142298,1188,NA
1118e7ed1708eaf9d94a644717b154ad,ID,vest,vest,1645579143048,"v,e,s,t,(Enter)",16455791443471642e48,vest_,16455791443471642e48,pass,pass-target,5,97,1645579144347,999,NA
1118e7ed1708eaf9d94a644717b154ad,REL,plate,glass,1645579144805,"p,l,a,t,e,(Enter)",16455791461241645e61,plate_,16455791461241645e61,pass,pass-target,5,98,1645579146124,1019,NA
1118e7ed1708eaf9d94a644717b154ad,NEU,rabbit,XXXXX,1645579148046,"r,a,b,b,i,t,(Enter)",16455791493821651e74,rabbit_,16455791493821651e74,pass,pass-target,5,99,1645579149382,1036,NA
1118e7ed1708eaf9d94a644717b154ad,UNREL,desk,deer,1645579150493,"d,e,s,k,(Enter)",16455791518971647e48,desk_,16455791518971647e48,pass,pass-target,5,100,1645579151897,1104,NA
1118e7ed1708eaf9d94a644717b154ad,REL,dagger,sword,1645579152856,"d,a,g,g,e,r,(Enter)",16455791545021632e74,dagger_,16455791545021632e74,pass,pass-target,5,101,1645579154502,1346,NA
1118e7ed1708eaf9d94a644717b154ad,NEU,ear,XXXXX,1645579155794,"e,a,r,(Enter)",1645579157063164e36,ear_,1645579157063164e36,pass,pass-target,5,102,1645579157063,969,NA
1118e7ed1708eaf9d94a644717b154ad,UNREL,cannon,plate,1645579163298,"c,a,n,n,o,n,(Enter)",16455791647501643e74,cannon_,16455791647501643e74,pass,pass-target,5,104,1645579164750,1152,NA
1118e7ed1708eaf9d94a644717b154ad,ID,dagger,dagger,1645579165808,"d,a,g,g,e,r,(Enter)",16455791671001652e74,dagger_,16455791671001652e74,pass,pass-target,5,105,1645579167100,992,NA
1118e7ed1708eaf9d94a644717b154ad,UNREL,coat,castle,1645579176365,"c,o,a,t,(Enter)",16455791777531646e48,coat_,16455791777531646e48,pass,pass-target,5,108,1645579177753,1088,NA
1118e7ed1708eaf9d94a644717b154ad,REL,cup,jug,1645579178928,"c,u,p,(Enter)",16455791804221652e35,cup_,16455791804221652e35,pass,pass-target,5,109,1645579180422,1194,NA
1118e7ed1708eaf9d94a644717b154ad,NEU,windmill,XXXXX,1645579181238,"w,i,n,d,m,i,l,l,(Enter)",16455791826011646e100,windmill_,16455791826011646e100,pass,pass-target,5,110,1645579182601,1063,NA
1118e7ed1708eaf9d94a644717b154ad,ID,car,car,1645579184374,"c,a,r,(Enter)",16455791853651647e35,car_,16455791853651647e35,pass,pass-target,5,111,1645579185365,691,NA
1118e7ed1708eaf9d94a644717b154ad,UNREL,glass,cannon,1645579185862,"g,l,a,s,s,(Enter)",16455791874141645e61,glass_,16455791874141645e61,pass,pass-target,5,112,1645579187414,1252,NA
1118e7ed1708eaf9d94a644717b154ad,ID,rabbit,rabbit,1645579188252,"r,a,b,b,i,t,(Enter)",16455791893251644e74,rabbit_,16455791893251644e74,pass,pass-target,5,113,1645579189325,773,NA
1118e7ed1708eaf9d94a644717b154ad,REL,pistol,cannon,1645579190415,"p,i,s,t,o,l,(Enter)",1645579192577163e75,pistol_,1645579192577163e75,pass,pass-target,5,114,1645579192577,1862,NA
1118e7ed1708eaf9d94a644717b154ad,NEU,swan,XXXXX,1645579193708,"s,w,a,n,(Enter)",16455791949611643e48,swan_,16455791949611643e48,pass,pass-target,5,115,1645579194961,953,NA
1118e7ed1708eaf9d94a644717b154ad,REL,arm,nose,1645579201128,"a,r,m,(Enter)",1645579202792164e36,arm_,1645579202792164e36,pass,pass-target,5,117,1645579202792,1364,NA
1118e7ed1708eaf9d94a644717b154ad,NEU,deer,XXXXX,1645579203368,"d,e,e,r,(Enter)",1645579204647164e49,deer_,1645579204647164e49,pass,pass-target,5,118,1645579204647,979,NA
1118e7ed1708eaf9d94a644717b154ad,ID,sword,sword,1645579205322,"s,w,o,r,d,(Enter)",16455792066731663e61,sword_,16455792066731663e61,pass,pass-target,5,119,1645579206673,1051,NA
1118e7ed1708eaf9d94a644717b154ad,UNREL,leg,car,1645579207889,"l,e,g,(Enter)",16455792098031643e35,leg_,16455792098031643e35,pass,pass-target,5,120,1645579209803,1614,NA
1118e7ed1708eaf9d94a644717b154ad,REL,ear,leg,1645579216028,"e,a,r,(Enter)",1645579217356165e36,ear_,1645579217356165e36,pass,pass-target,5,122,1645579217356,1028,NA
1118e7ed1708eaf9d94a644717b154ad,NEU,bed,XXXXX,1645579217737,"b,e,d,(Enter)",16455792195231646e35,bed_,16455792195231646e35,pass,pass-target,5,123,1645579219523,1486,NA
1118e7ed1708eaf9d94a644717b154ad,UNREL,ear,vest,1645579220020,"e,a,r,(Enter)",16455792214431643e35,ear_,16455792214431643e35,pass,pass-target,5,124,1645579221443,1123,NA
1118e7ed1708eaf9d94a644717b154ad,NEU,sword,XXXXX,1645579228381,"s,w,o,r,d,(Enter)",16455792300361655e61,sword_,16455792300361655e61,pass,pass-target,5,126,1645579230036,1355,NA
1118e7ed1708eaf9d94a644717b154ad,ID,deer,deer,1645579231192,"d,e,e,r,(Enter)",16455792322271632e48,deer_,16455792322271632e48,pass,pass-target,5,127,1645579232227,735,NA
1118e7ed1708eaf9d94a644717b154ad,UNREL,bed,pistol,1645579232856,"b,e,d,(Enter)",16455792344581643e35,bed_,16455792344581643e35,pass,pass-target,5,128,1645579234458,1302,NA
13fe2172e3ad1c9ebf13930f2650044a,ID,table,table,1645567194090,"t,a,b,l,e,(Enter)",1645567195875164e62,table_,1645567195875164e62,pass,pass-target,6,1,1645567195875,1485,NA
13fe2172e3ad1c9ebf13930f2650044a,REL,church,castle,1645567197285,"c,h,u,r,c,h,(Enter)",16455671989301643e74,church_,16455671989301643e74,pass,pass-target,6,2,1645567198930,1345,NA
13fe2172e3ad1c9ebf13930f2650044a,NEU,sweater,XXXXX,1645567200804,"s,w,e,a,t,e,r,(Enter)",16455672021751644e87,sweater_,16455672021751644e87,pass,pass-target,6,3,1645567202175,1071,NA
13fe2172e3ad1c9ebf13930f2650044a,UNREL,plate,cannon,1645567204486,"p,l,a,t,e,(Enter)",16455672057881636e61,plate_,16455672057881636e61,pass,pass-target,6,4,1645567205788,1002,NA
13fe2172e3ad1c9ebf13930f2650044a,REL,castle,church,1645567206959,"c,a,s,t,l,e,(Enter)",16455672083561643e74,castle_,16455672083561643e74,pass,pass-target,6,5,1645567208356,1097,NA
13fe2172e3ad1c9ebf13930f2650044a,NEU,pistol,XXXXX,1645567209750,"p,i,s,t,o,l,(Enter)",16455672110631645e74,pistol_,16455672110631645e74,pass,pass-target,6,6,1645567211063,1013,NA
13fe2172e3ad1c9ebf13930f2650044a,ID,wardrobe,wardrobe,1645567212787,"w,a,r,d,r,o,b,e,(Enter)",1645567214994165e101,wardrobe_,1645567214994165e101,pass,pass-target,6,7,1645567214994,1907,NA
13fe2172e3ad1c9ebf13930f2650044a,ID,cannon,cannon,1645567220201,"c,a,n,n,o,n,(Enter)",16455672213931645e74,cannon_,16455672213931645e74,pass,pass-target,6,9,1645567221393,892,NA
13fe2172e3ad1c9ebf13930f2650044a,REL,tortoise,swan,1645567222803,"t,o,r,t,o,i,s,e,(Enter)",16455672242751647e100,tortoise_,16455672242751647e100,pass,pass-target,6,10,1645567224275,1172,NA
13fe2172e3ad1c9ebf13930f2650044a,NEU,leg,XXXXX,1645567226039,"l,e,g,(Enter)",16455672273451643e35,leg_,16455672273451643e35,pass,pass-target,6,11,1645567227345,1006,NA
13fe2172e3ad1c9ebf13930f2650044a,UNREL,deer,desk,1645567228083,"d,e,e,r,(Enter)",16455672292811644e48,deer_,16455672292811644e48,pass,pass-target,6,12,1645567229281,898,NA
13fe2172e3ad1c9ebf13930f2650044a,REL,skirt,sweater,1645567230293,"s,k,i,r,t,(Enter)",1645567231609164e62,skirt_,1645567231609164e62,pass,pass-target,6,13,1645567231609,1016,NA
13fe2172e3ad1c9ebf13930f2650044a,NEU,factory,XXXXX,1645567234427,"f,a,c,t,o,r,y,(Enter)",16455672358691638e87,factory_,16455672358691638e87,pass,pass-target,6,14,1645567235869,1142,NA
13fe2172e3ad1c9ebf13930f2650044a,ID,coat,coat,1645567237582,"c,o,a,t,(Enter)",16455672394081647e48,coat_,16455672394081647e48,pass,pass-target,6,15,1645567239408,1526,NA
13fe2172e3ad1c9ebf13930f2650044a,UNREL,rabbit,church,1645567241051,"r,a,b,b,i,t,(Enter)",16455672423781648e74,rabbit_,16455672423781648e74,pass,pass-target,6,16,1645567242378,1027,NA
13fe2172e3ad1c9ebf13930f2650044a,ID,bike,bike,1645567244296,"b,i,k,e,(Enter)",16455672460031643e48,bike_,16455672460031643e48,pass,pass-target,6,17,1645567246003,1407,NA
13fe2172e3ad1c9ebf13930f2650044a,REL,bed,desk,1645567246788,"b,e,d,(Enter)",16455672483251643e35,bed_,16455672483251643e35,pass,pass-target,6,18,1645567248325,1237,NA
13fe2172e3ad1c9ebf13930f2650044a,NEU,table,XXXXX,1645567249008,"t,a,b,l,e,(Enter)",16455672503051661e61,table_,16455672503051661e61,pass,pass-target,6,19,1645567250305,997,NA
13fe2172e3ad1c9ebf13930f2650044a,UNREL,train,arm,1645567252606,"t,r,a,i,n,(Enter)",16455672540081646e61,train_,16455672540081646e61,pass,pass-target,6,20,1645567254008,1102,NA
13fe2172e3ad1c9ebf13930f2650044a,NEU,jug,XXXXX,1645567262145,"j,u,g,(Enter)",16455672640891644e35,jug_,16455672640891644e35,pass,pass-target,6,22,1645567264089,1644,NA
13fe2172e3ad1c9ebf13930f2650044a,ID,plate,plate,1645567264937,"p,l,a,t,e,(Enter)",16455672662891642e61,plate_,16455672662891642e61,pass,pass-target,6,23,1645567266289,1052,NA
13fe2172e3ad1c9ebf13930f2650044a,UNREL,swan,skirt,1645567268057,"s,w,a,n,(Enter)",1645567269304165e49,swan_,1645567269304165e49,pass,pass-target,6,24,1645567269304,947,NA
13fe2172e3ad1c9ebf13930f2650044a,ID,bed,bed,1645567273874,"b,e,d,(Enter)",1645567275588164e36,bed_,1645567275588164e36,pass,pass-target,6,25,1645567275588,1414,NA
13fe2172e3ad1c9ebf13930f2650044a,REL,plane,car,1645567276122,"p,l,a,n,e,(Enter)",16455672775881652e61,plane_,16455672775881652e61,pass,pass-target,6,26,1645567277588,1166,NA
13fe2172e3ad1c9ebf13930f2650044a,REL,leg,ear,1645567295688,"l,e,g,(Enter)",16455672971601645e35,leg_,16455672971601645e35,pass,pass-target,6,29,1645567297160,1172,NA
13fe2172e3ad1c9ebf13930f2650044a,NEU,desk,XXXXX,1645567298042,"d,e,s,k,(Enter)",16455672993941648e48,desk_,16455672993941648e48,pass,pass-target,6,30,1645567299394,1052,NA
13fe2172e3ad1c9ebf13930f2650044a,UNREL,dagger,sweater,1645567303277,"d,a,g,g,e,r,(Enter)",16455673053211648e74,dagger_,16455673053211648e74,pass,pass-target,6,32,1645567305321,1744,NA
13fe2172e3ad1c9ebf13930f2650044a,ID,desk,desk,1645567308448,"d,e,s,k,(Enter)",1645567309610164e49,desk_,1645567309610164e49,pass,pass-target,6,33,1645567309610,862,NA
13fe2172e3ad1c9ebf13930f2650044a,REL,train,bike,1645567310553,"t,r,a,i,n,(Enter)",16455673118641655e61,train_,16455673118641655e61,pass,pass-target,6,34,1645567311864,1011,NA
13fe2172e3ad1c9ebf13930f2650044a,NEU,cup,XXXXX,1645567312976,"c,u,p,(Enter)",1645567314292164e36,cup_,1645567314292164e36,pass,pass-target,6,35,1645567314292,1016,NA
13fe2172e3ad1c9ebf13930f2650044a,UNREL,skirt,swan,1645567315170,"s,k,i,r,t,(Enter)",16455673163721643e61,skirt_,16455673163721643e61,pass,pass-target,6,36,1645567316372,902,NA
13fe2172e3ad1c9ebf13930f2650044a,REL,car,plane,1645567317926,"c,a,r,(Enter)",1645567319209164e36,car_,1645567319209164e36,pass,pass-target,6,37,1645567319209,983,NA
